Elevation (deg)
63.948
63.925
63.902
63.879
63.855
63.832
63.808
63.784
63.76
63.736
63.712
63.688
63.663
63.639
63.614
63.589
63.564
63.539
63.514
63.489
63.464
63.438
63.413
63.387
63.361
63.335
63.309
63.283
63.257
63.23
63.204
63.177
63.15
63.123
63.096
63.069
63.042
63.015
62.987
62.96
62.932
62.904
62.877
62.849
62.821
62.792
62.764
62.736
62.707
62.678
62.65
62.621
62.592
62.563
62.534
62.504
62.475
62.446
62.416
62.386
62.356
62.327
62.297
62.266
62.236
62.206
62.175
62.145
62.114
62.084
62.053
62.022
61.991
61.96
61.928
61.897
61.866
61.834
61.803
61.771
61.739
61.707
61.675
61.643
61.611
61.579
61.546
61.514
61.481
61.448
61.416
61.383
61.35
61.317
61.284
61.25
61.217
61.184
61.15
61.116
61.083
61.049
61.015
60.981
60.947
60.913
60.879
60.844
60.81
60.775
60.741
60.706
60.671
60.637
60.602
60.567
60.531
60.496
60.461
60.426
60.39
60.355
60.319
60.283
60.248
60.212
60.176
60.14
60.104
60.067
60.031
59.995
59.958
59.922
59.885
59.848
59.812
59.775
59.738
59.701
59.664
59.627
59.589
59.552
59.515
59.477
59.44
59.402
59.364
59.327
59.289
59.251
59.213
59.175
59.136
59.098
59.06
59.022
58.983
58.945
58.906
58.867
58.829
58.79
58.751
58.712
58.673
58.634
58.595
58.555
58.516
58.477
58.437
58.398
58.358
58.318
58.279
58.239
58.199
58.159
58.119
58.079
58.039
57.999
57.958
57.918
57.878
57.837
57.797
57.756
57.715
57.675
57.634
57.593
57.552
57.511
57.47
57.429
57.388
57.346
57.305
57.264
57.222
57.181
57.139
57.098
57.056
57.014
56.972
56.93
56.889
56.847
56.804
56.762
56.72
56.678
56.636
56.593
56.551
56.508
56.466
56.423
56.381
56.338
56.295
56.253
56.21
56.167
56.124
56.081
56.038
55.995
55.951
55.908
55.865
55.821
55.778
55.734
55.691
55.647
55.604
55.56
55.516
55.473
55.429
55.385
55.341
55.297
55.253
55.209
55.164
55.12
55.076
55.032
54.987
54.943
54.898
54.854
54.809
54.765
54.72
54.675
54.631
54.586
54.541
54.496
54.451
54.406
54.361
54.316
54.271
54.225
54.18
54.135
54.09
54.044
53.999
53.953
53.908
53.862
53.816
53.771
53.725
53.679
53.633
53.588
53.542
53.496
53.45
53.404
53.358
53.312
53.265
53.219
53.173
53.127
53.08
53.034
52.987
52.941
52.894
52.848
52.801
52.755
52.708
52.661
52.615
52.568
52.521
52.474
52.427
52.38
52.333
52.286
52.239
52.192
52.145
52.097
52.05
52.003
51.955
51.908
51.861
51.813
51.766
51.718
51.671
51.623
51.575
51.528
51.48
51.432
51.384
51.337
51.289
51.241
51.193
51.145
51.097
51.049
51.001
50.953
50.904
50.856
50.808
50.76
50.711
50.663
50.615
50.566
50.518
50.469
50.421
50.372
50.324
50.275
50.226
50.178
50.129
50.08
50.031
49.982
49.934
49.885
49.836
49.787
49.738
49.689
49.64
49.591
49.541
49.492
49.443
49.394
49.345
49.295
49.246
49.197
49.147
49.098
49.048
48.999
48.949
48.9
48.85
48.801
48.751
48.701
48.652
48.602
48.552
48.502
48.452
48.403
48.353
48.303
48.253
48.203
48.153
48.103
48.053
48.003
47.953
47.902
47.852
47.802
47.752
47.701
47.651
47.601
47.551
47.5
47.45
47.399
47.349
47.298
47.248
47.197
47.147
47.096
47.045
46.995
46.944
46.893
46.843
46.792
46.741
46.69
46.64
46.589
46.538
46.487
46.436
46.385
46.334
46.283
46.232
46.181
46.13
46.079
46.027
45.976
45.925
45.874
45.823
45.771
45.72
45.669
45.617
45.566
45.515
45.463
45.412
45.36
45.309
45.257
45.206
45.154
45.102
45.051
44.999
44.948
44.896
44.844
44.792
44.741
44.689
44.637
44.585
44.533
44.482
44.43
44.378
44.326
44.274
44.222
44.17
44.118
44.066
44.014
43.962
43.91
43.857
43.805
43.753
43.701
43.649
43.596
43.544
43.492
43.44
43.387
43.335
43.283
43.23
43.178
43.125
43.073
43.02
42.968
42.915
42.863
42.81
42.758
42.705
42.653
42.6
42.547
42.495
42.442
42.389
42.336
42.284
42.231
42.178
42.125
42.072
42.02
41.967
41.914
41.861
41.808
41.755
41.702
41.649
41.596
41.543
41.49
41.437
41.384
41.331
41.278
41.225
41.171
41.118
41.065
41.012
40.959
40.905
40.852
40.799
40.746
40.692
40.639
40.586
40.532
40.479
40.426
40.372
40.319
40.265
40.212
40.158
40.105
40.051
39.998
39.944
39.891
39.837
39.784
39.73
39.676
39.623
39.569
39.515
39.462
39.408
39.354
39.3
39.247
39.193
39.139
39.085
39.031
38.978
38.924
38.87
38.816
38.762
38.708
38.654
38.6
38.546
38.492
38.438
38.384
38.33
38.276
38.222
38.168
38.114
38.06
38.006
37.952
37.898
37.843
37.789
37.735
37.681
37.627
37.572
37.518
37.464
37.41
37.355
37.301
37.247
37.192
37.138
37.084
37.029
36.975
36.921
36.866
36.812
36.757
36.703
36.648
36.594
36.539
36.485
36.43
36.376
36.321
36.267
36.212
36.158
36.103
36.048
35.994
35.939
35.884
35.83
35.775
35.72
35.666
35.611
35.556
35.502
35.447
35.392
35.337
35.282
35.228
35.173
35.118
35.063
35.008
34.953
34.899
34.844
34.789
34.734
34.679
34.624
34.569
34.514
34.459
34.404
34.349
34.294
34.239
34.184
34.129
34.074
34.019
33.964
33.909
33.854
33.798
33.743
33.688
33.633
33.578
33.523
33.468
33.412
33.357
33.302
33.247
33.191
33.136
33.081
33.026
32.97
32.915
32.86
32.804
32.749
32.694
32.638
32.583
32.528
32.472
32.417
32.362
32.306
32.251
32.195
32.14
32.084
32.029
31.974
31.918
31.863
31.807
31.752
31.696
31.641
31.585
31.529
31.474
31.418
31.363
31.307
31.252
31.196
31.14
31.085
31.029
30.973
30.918
30.862
30.806
30.751
30.695
30.639
30.584
30.528
30.472
30.416
30.361
30.305
30.249
30.193
30.138
30.082
30.026
29.97
29.914
29.858
29.803
29.747
29.691
29.635
29.579
29.523
29.467
29.411
29.356
29.3
29.244
29.188
29.132
29.076
29.02
28.964
28.908
28.852
28.796
28.74
28.684
28.628
28.572
28.516
28.46
28.404
28.348
28.292
28.236
28.179
28.123
28.067
28.011
27.955
27.899
27.843
27.787
27.73
27.674
27.618
27.562
27.506
27.45
27.393
27.337
27.281
27.225
27.169
27.112
27.056
27
26.944
26.887
26.831
26.775
26.718
26.662
26.606
26.549
26.493
26.437
26.381
26.324
26.268
26.211
26.155
26.099
26.042
25.986
25.93
25.873
25.817
25.76
25.704
25.648
25.591
25.535
25.478
25.422
25.365
25.309
25.252
25.196
25.139
25.083
25.026
24.97
24.913
24.857
24.8
24.744
24.687
24.631
24.574
24.518
24.461
24.404
24.348
24.291
24.235
24.178
24.121
24.065
24.008
23.952
23.895
23.838
23.782
23.725
23.668
23.612
23.555
23.498
23.442
23.385
23.328
23.272
23.215
23.158
23.102
23.045
22.988
22.931
22.875
22.818
22.761
22.704
22.648
22.591
22.534
22.477
22.421
22.364
22.307
22.25
22.193
22.137
22.08
22.023
21.966
21.909
21.852
21.796
21.739
21.682
21.625
21.568
21.511
21.454
21.397
21.341
21.284
21.227
21.17
21.113
21.056
20.999
20.942
20.885
20.828
20.771
20.714
20.658
20.601
20.544
20.487
20.43
20.373
20.316
20.259
20.202
20.145
20.088
20.031
19.974
19.917
19.86
19.803
19.746
19.689
19.632
19.575
19.517
19.46
19.403
19.346
19.289
19.232
19.175
19.118
19.061
19.004
18.947
18.89
18.833
18.775
18.718
18.661
18.604
18.547
18.49
18.433
18.376
18.318
18.261
18.204
18.147
18.09
18.033
17.975
17.918
17.861
17.804
17.747
17.69
17.632
17.575
17.518
17.461
17.404
17.346
17.289
17.232
17.175
17.117
17.06
17.003
16.946
16.889
16.831
16.774
16.717
16.66
16.602
16.545
16.488
16.43
16.373
16.316
16.259
16.201
16.144
16.087
16.029
15.972
15.915
15.857
15.8
15.743
15.686
15.628
15.571
15.514
15.456
15.399
15.342
15.284
15.227
15.169
15.112
15.055
14.997
14.94
14.883
14.825
14.768
14.71
14.653
14.596
14.538
14.481
14.424
14.366
14.309
14.251
14.194
14.137
14.079
14.022
13.964
13.907
13.849
13.792
13.735
13.677
13.62
13.562
13.505
13.447
13.39
13.332
13.275
13.217
13.16
13.103
13.045
12.988
12.93
12.873
12.815
12.758
12.7
12.643
12.585
12.528
12.47
12.413
12.355
12.298
12.24
12.183
12.125
12.068
12.01
11.953
11.895
11.838
11.78
11.723
11.665
11.607
11.55
11.492
11.435
11.377
11.32
11.262
11.205
11.147
11.089
11.032
10.974
10.917
10.859
10.802
10.744
10.687
10.629
10.571
10.514
10.456
10.399
10.341
10.283
10.226
10.168
10.111
10.053
9.995
9.938
9.88
9.823
9.765
9.707
9.65
9.592
9.535
9.477
9.419
9.362
9.304
9.246
9.189
9.131
9.074
9.016
8.958
8.901
8.843
8.785
8.728
8.67
8.612
8.555
8.497
8.439
8.382
8.324
8.266
8.209
8.151
8.093
8.036
7.978
7.92
7.863
7.805
7.747
7.69
7.632
7.574
7.517
7.459
7.401
7.344
7.286
7.228
7.171
7.113
7.055
6.997
6.94
6.882
6.824
6.767
6.709
6.651
6.594
6.536
6.478
6.42
6.363
6.305
6.247
6.19
6.132
6.074
6.016
5.959
5.901
5.843
5.786
5.728
5.67
5.612
5.555
5.497
5.439
5.381
5.324
5.266
5.208
5.151
5.093
5.035
4.977
4.92
4.862
4.804
4.746
4.689
4.631
4.573
4.515
4.458
4.4
4.342
4.284
4.227
4.169
4.111
4.053
3.996
3.938
3.88
3.822
3.765
3.707
3.649
3.591
3.534
3.476
3.418
3.36
3.302
3.245
3.187
3.129
3.071
3.014
2.956
2.898
2.84
2.783
2.725
2.667
2.609
2.551
2.494
2.436
2.378
2.32
2.263
2.205
2.147
2.089
2.031
1.974
1.916
1.858
1.8
1.743
1.685
1.627
1.569
1.511
1.454
1.396
1.338
1.28
1.223
1.165
1.107
1.049
0.991
0.934
0.876
0.818
0.76
0.703
0.645
0.587
0.529
0.471
0.414
0.356
0.298
0.24
0.182
0.125
0.067
0.009
-0.049
-0.106
-0.164
-0.222
-0.28
-0.338
-0.395
-0.453
-0.511
-0.569
-0.626
-0.684
-0.742
-0.8
-0.858
-0.915
-0.973
-1.031
-1.089
-1.147
-1.204
-1.262
-1.32
-1.378
-1.435
-1.493
-1.551
-1.609
-1.667
-1.724
-1.782
-1.84
-1.898
-1.955
-2.013
-2.071
-2.129
-2.187
-2.244
-2.302
-2.36
-2.418
-2.475
-2.533
-2.591
-2.649
-2.706
-2.764
-2.822
-2.88
-2.938
-2.995
-3.053
-3.111
-3.169
-3.226
-3.284
-3.342
-3.4
-3.457
-3.515
-3.573
-3.631
-3.689
-3.746
-3.804
-3.862
-3.92
-3.977
-4.035
-4.093
-4.151
-4.208
-4.266
-4.324
-4.382
-4.439
-4.497
-4.555
-4.613
-4.67
-4.728
-4.786
-4.844
-4.901
-4.959
-5.017
-5.074
-5.132
-5.19
-5.248
-5.305
-5.363
-5.421
-5.479
-5.536
-5.594
-5.652
-5.71
-5.767
-5.825
-5.883
-5.94
-5.998
-6.056
-6.114
-6.171
-6.229
-6.287
-6.344
-6.402
-6.46
-6.518
-6.575
-6.633
-6.691
-6.748
-6.806
-6.864
-6.921
-6.979
-7.037
-7.095
-7.152
-7.21
-7.268
-7.325
-7.383
-7.441
-7.498
-7.556
-7.614
-7.671
-7.729
-7.787
-7.844
-7.902
-7.96
-8.017
-8.075
-8.133
-8.19
-8.248
-8.306
-8.363
-8.421
-8.479
-8.536
-8.594
-8.652
-8.709
-8.767
-8.825
-8.882
-8.94
-8.998
-9.055
-9.113
-9.17
-9.228
-9.286
-9.343
-9.401
-9.459
-9.516
-9.574
-9.631
-9.689
-9.747
-9.804
-9.862
-9.92
-9.977
-10.035
-10.092
-10.15
-10.208
-10.265
-10.323
-10.38
-10.438
-10.495
-10.553
-10.611
-10.668
-10.726
-10.783
-10.841
-10.899
-10.956
-11.014
-11.071
-11.129
-11.186
-11.244
-11.301
-11.359
-11.417
-11.474
-11.532
-11.589
-11.647
-11.704
-11.762
-11.819
-11.877
-11.934
-11.992
-12.049
-12.107
-12.164
-12.222
-12.279
-12.337
-12.394
-12.452
-12.509
-12.567
-12.624
-12.682
-12.739
-12.797
-12.854
-12.912
-12.969
-13.027
-13.084
-13.142
-13.199
-13.257
-13.314
-13.372
-13.429
-13.486
-13.544
-13.601
-13.659
-13.716
-13.774
-13.831
-13.889
-13.946
-14.003
-14.061
-14.118
-14.176
-14.233
-14.29
-14.348
-14.405
-14.463
-14.52
-14.577
-14.635
-14.692
-14.75
-14.807
-14.864
-14.922
-14.979
-15.036
-15.094
-15.151
-15.209
-15.266
-15.323
-15.381
-15.438
-15.495
-15.553
-15.61
-15.667
-15.725
-15.782
-15.839
-15.896
-15.954
-16.011
-16.068
-16.126
-16.183
-16.24
-16.298
-16.355
-16.412
-16.469
-16.527
-16.584
-16.641
-16.698
-16.756
-16.813
-16.87
-16.927
-16.985
-17.042
-17.099
-17.156
-17.214
-17.271
-17.328
-17.385
-17.442
-17.5
-17.557
-17.614
-17.671
-17.728
-17.786
-17.843
-17.9
-17.957
-18.014
-18.072
-18.129
-18.186
-18.243
-18.3
-18.357
-18.414
-18.472
-18.529
-18.586
-18.643
-18.7
-18.757
-18.814
-18.871
-18.928
-18.986
-19.043
-19.1
-19.157
-19.214
-19.271
-19.328
-19.385
-19.442
-19.499
-19.556
-19.613
-19.67
-19.727
-19.784
-19.841
-19.898
-19.955
-20.012
-20.069
-20.126
-20.183
-20.24
-20.297
-20.354
-20.411
-20.468
-20.525
-20.582
-20.639
-20.696
-20.753
-20.81
-20.867
-20.924
-20.981
-21.038
-21.095
-21.152
-21.208
-21.265
-21.322
-21.379
-21.436
-21.493
-21.55
-21.607
-21.664
-21.72
-21.777
-21.834
-21.891
-21.948
-22.005
-22.061
-22.118
-22.175
-22.232
-22.289
-22.345
-22.402
-22.459
-22.516
-22.573
-22.629
-22.686
-22.743
-22.8
-22.856
-22.913
-22.97
-23.027
-23.083
-23.14
-23.197
-23.253
-23.31
-23.367
-23.423
-23.48
-23.537
-23.593
-23.65
-23.707
-23.763
-23.82
-23.877
-23.933
-23.99
-24.047
-24.103
-24.16
-24.216
-24.273
-24.33
-24.386
-24.443
-24.499
-24.556
-24.612
-24.669
-24.725
-24.782
-24.839
-24.895
-24.952
-25.008
-25.065
-25.121
-25.178
-25.234
-25.291
-25.347
-25.403
-25.46
-25.516
-25.573
-25.629
-25.686
-25.742
-25.798
-25.855
-25.911
-25.968
-26.024
-26.08
-26.137
-26.193
-26.25
-26.306
-26.362
-26.419
-26.475
-26.531
-26.588
-26.644
-26.7
-26.756
-26.813
-26.869
-26.925
-26.981
-27.038
-27.094
-27.15
-27.206
-27.263
-27.319
-27.375
-27.431
-27.487
-27.544
-27.6
-27.656
-27.712
-27.768
-27.824
-27.881
-27.937
-27.993
-28.049
-28.105
-28.161
-28.217
-28.273
-28.329
-28.385
-28.442
-28.498
-28.554
-28.61
-28.666
-28.722
-28.778
-28.834
-28.89
-28.946
-29.002
-29.058
-29.114
-29.17
-29.225
-29.281
-29.337
-29.393
-29.449
-29.505
-29.561
-29.617
-29.673
-29.729
-29.784
-29.84
-29.896
-29.952
-30.008
-30.063
-30.119
-30.175
-30.231
-30.287
-30.342
-30.398
-30.454
-30.51
-30.565
-30.621
-30.677
-30.732
-30.788
-30.844
-30.899
-30.955
-31.011
-31.066
-31.122
-31.178
-31.233
-31.289
-31.344
-31.4
-31.456
-31.511
-31.567
-31.622
-31.678
-31.733
-31.789
-31.844
-31.9
-31.955
-32.011
-32.066
-32.122
-32.177
-32.233
-32.288
-32.343
-32.399
-32.454
-32.51
-32.565
-32.62
-32.676
-32.731
-32.786
-32.842
-32.897
-32.952
-33.007
-33.063
-33.118
-33.173
-33.229
-33.284
-33.339
-33.394
-33.449
-33.505
-33.56
-33.615
-33.67
-33.725
-33.78
-33.835
-33.891
-33.946
-34.001
-34.056
-34.111
-34.166
-34.221
-34.276
-34.331
-34.386
-34.441
-34.496
-34.551
-34.606
-34.661
-34.716
-34.771
-34.825
-34.88
-34.935
-34.99
-35.045
-35.1
-35.155
-35.209
-35.264
-35.319
-35.374
-35.429
-35.483
-35.538
-35.593
-35.648
-35.702
-35.757
-35.812
-35.866
-35.921
-35.976
-36.03
-36.085
-36.139
-36.194
-36.249
-36.303
-36.358
-36.412
-36.467
-36.521
-36.576
-36.63
-36.685
-36.739
-36.794
-36.848
-36.903
-36.957
-37.011
-37.066
-37.12
-37.174
-37.229
-37.283
-37.337
-37.392
-37.446
-37.5
-37.554
-37.609
-37.663
-37.717
-37.771
-37.825
-37.88
-37.934
-37.988
-38.042
-38.096
-38.15
-38.204
-38.258
-38.312
-38.366
-38.42
-38.474
-38.528
-38.582
-38.636
-38.69
-38.744
-38.798
-38.852
-38.906
-38.96
-39.013
-39.067
-39.121
-39.175
-39.229
-39.282
-39.336
-39.39
-39.444
-39.497
-39.551
-39.605
-39.658
-39.712
-39.766
-39.819
-39.873
-39.926
-39.98
-40.033
-40.087
-40.14
-40.194
-40.247
-40.301
-40.354
-40.408
-40.461
-40.514
-40.568
-40.621
-40.674
-40.728
-40.781
-40.834
-40.888
-40.941
-40.994
-41.047
-41.1
-41.154
-41.207
-41.26
-41.313
-41.366
-41.419
-41.472
-41.525
-41.578
-41.631
-41.684
-41.737
-41.79
-41.843
-41.896
-41.949
-42.002
-42.055
-42.108
-42.16
-42.213
-42.266
-42.319
-42.371
-42.424
-42.477
-42.529
-42.582
-42.635
-42.687
-42.74
-42.793
-42.845
-42.898
-42.95
-43.003
-43.055
-43.108
-43.16
-43.212
-43.265
-43.317
-43.37
-43.422
-43.474
-43.527
-43.579
-43.631
-43.683
-43.735
-43.788
-43.84
-43.892
-43.944
-43.996
-44.048
-44.1
-44.152
-44.204
-44.256
-44.308
-44.36
-44.412
-44.464
-44.516
-44.568
-44.62
-44.671
-44.723
-44.775
-44.827
-44.878
-44.93
-44.982
-45.033
-45.085
-45.137
-45.188
-45.24
-45.291
-45.343
-45.394
-45.446
-45.497
-45.548
-45.6
-45.651
-45.703
-45.754
-45.805
-45.856
-45.908
-45.959
-46.01
-46.061
-46.112
-46.163
-46.215
-46.266
-46.317
-46.368
-46.419
-46.47
-46.52
-46.571
-46.622
-46.673
-46.724
-46.775
-46.825
-46.876
-46.927
-46.978
-47.028
-47.079
-47.129
-47.18
-47.231
-47.281
-47.332
-47.382
-47.433
-47.483
-47.533
-47.584
-47.634
-47.684
-47.735
-47.785
-47.835
-47.885
-47.935
-47.986
-48.036
-48.086
-48.136
-48.186
-48.236
-48.286
-48.336
-48.386
-48.435
-48.485
-48.535
-48.585
-48.635
-48.684
-48.734
-48.784
-48.833
-48.883
-48.932
-48.982
-49.031
-49.081
-49.13
-49.18
-49.229
-49.278
-49.328
-49.377
-49.426
-49.475
-49.525
-49.574
-49.623
-49.672
-49.721
-49.77
-49.819
-49.868
-49.917
-49.966
-50.015
-50.063
-50.112
-50.161
-50.21
-50.258
-50.307
-50.356
-50.404
-50.453
-50.501
-50.55
-50.598
-50.646
-50.695
-50.743
-50.791
-50.84
-50.888
-50.936
-50.984
-51.032
-51.08
-51.128
-51.176
-51.224
-51.272
-51.32
-51.368
-51.416
-51.464
-51.511
-51.559
-51.607
-51.654
-51.702
-51.749
-51.797
-51.844
-51.892
-51.939
-51.987
-52.034
-52.081
-52.128
-52.176
-52.223
-52.27
-52.317
-52.364
-52.411
-52.458
-52.505
-52.552
-52.598
-52.645
-52.692
-52.739
-52.785
-52.832
-52.878
-52.925
-52.971
-53.018
-53.064
-53.111
-53.157
-53.203
-53.249
-53.296
-53.342
-53.388
-53.434
-53.48
-53.526
-53.572
-53.618
-53.664
-53.709
-53.755
-53.801
-53.846
-53.892
-53.937
-53.983
-54.028
-54.074
-54.119
-54.165
-54.21
-54.255
-54.3
-54.345
-54.39
-54.435
-54.48
-54.525
-54.57
-54.615
-54.66
-54.705
-54.749
-54.794
-54.838
-54.883
-54.928
-54.972
-55.016
-55.061
-55.105
-55.149
-55.193
-55.237
-55.282
-55.326
-55.37
-55.413
-55.457
-55.501
-55.545
-55.589
-55.632
-55.676
-55.719
-55.763
-55.806
-55.85
-55.893
-55.936
-55.98
-56.023
-56.066
-56.109
-56.152
-56.195
-56.238
-56.281
-56.323
-56.366
-56.409
-56.451
-56.494
-56.536
-56.579
-56.621
-56.663
-56.706
-56.748
-56.79
-56.832
-56.874
-56.916
-56.958
-57
-57.041
-57.083
-57.125
-57.166
-57.208
-57.249
-57.291
-57.332
-57.373
-57.414
-57.456
-57.497
-57.538
-57.579
-57.62
-57.66
-57.701
-57.742
-57.782
-57.823
-57.864
-57.904
-57.944
-57.985
-58.025
-58.065
-58.105
-58.145
-58.185
-58.225
-58.265
-58.305
-58.344
-58.384
-58.423
-58.463
-58.502
-58.542
-58.581
-58.62
-58.659
-58.698
-58.737
-58.776
-58.815
-58.854
-58.893
-58.931
-58.97
-59.008
-59.047
-59.085
-59.123
-59.161
-59.2
-59.238
-59.276
-59.313
-59.351
-59.389
-59.427
-59.464
-59.502
-59.539
-59.576
-59.614
-59.651
-59.688
-59.725
-59.762
-59.799
-59.836
-59.872
-59.909
-59.946
-59.982
-60.018
-60.055
-60.091
-60.127
-60.163
-60.199
-60.235
-60.271
-60.307
-60.342
-60.378
-60.413
-60.449
-60.484
-60.519
-60.554
-60.59
-60.625
-60.659
-60.694
-60.729
-60.764
-60.798
-60.833
-60.867
-60.901
-60.935
-60.969
-61.003
-61.037
-61.071
-61.105
-61.139
-61.172
-61.206
-61.239
-61.272
-61.305
-61.338
-61.371
-61.404
-61.437
-61.47
-61.502
-61.535
-61.567
-61.6
-61.632
-61.664
-61.696
-61.728
-61.76
-61.792
-61.823
-61.855
-61.886
-61.918
-61.949
-61.98
-62.011
-62.042
-62.073
-62.104
-62.135
-62.165
-62.196
-62.226
-62.256
-62.286
-62.316
-62.346
-62.376
-62.406
-62.435
-62.465
-62.494
-62.524
-62.553
-62.582
-62.611
-62.64
-62.669
-62.697
-62.726
-62.754
-62.783
-62.811
-62.839
-62.867
-62.895
-62.923
-62.951
-62.978
-63.006
-63.033
-63.06
-63.087
-63.114
-63.141
-63.168
-63.195
-63.221
-63.248
-63.274
-63.3
-63.326
-63.352
-63.378
-63.404
-63.43
-63.455
-63.481
-63.506
-63.531
-63.556
-63.581
-63.606
-63.631
-63.655
-63.68
-63.704
-63.728
-63.752
-63.776
-63.8
-63.824
-63.847
-63.871
-63.894
-63.918
-63.941
-63.964
-63.986
-64.009
-64.032
-64.054
-64.077
-64.099
-64.121
-64.143
-64.165
-64.187
-64.208
-64.23
-64.251
-64.272
-64.293
-64.314
-64.335
-64.356
-64.376
-64.397
-64.417
-64.437
-64.457
-64.477
-64.497
-64.517
-64.536
-64.556
-64.575
-64.594
-64.613
-64.632
-64.65
-64.669
-64.687
-64.706
-64.724
-64.742
-64.76
-64.778
-64.795
-64.813
-64.83
-64.847
-64.864
-64.881
-64.898
-64.915
-64.931
-64.948
-64.964
-64.98
-64.996
-65.012
-65.027
-65.043
-65.058
-65.074
-65.089
-65.104
-65.118
-65.133
-65.148
-65.162
-65.176
-65.19
-65.204
-65.218
-65.232
-65.245
-65.259
-65.272
-65.285
-65.298
-65.311
-65.324
-65.336
-65.348
-65.361
-65.373
-65.385
-65.396
-65.408
-65.42
-65.431
-65.442
-65.453
-65.464
-65.475
-65.485
-65.496
-65.506
-65.516
-65.526
-65.536
-65.546
-65.555
-65.565
-65.574
-65.583
-65.592
-65.601
-65.609
-65.618
-65.626
-65.634
-65.642
-65.65
-65.658
-65.666
-65.673
-65.68
-65.687
-65.694
-65.701
-65.708
-65.714
-65.721
-65.727
-65.733
-65.739
-65.744
-65.75
-65.755
-65.761
-65.766
-65.771
-65.776
-65.78
-65.785
-65.789
-65.793
-65.797
-65.801
-65.805
-65.808
-65.812
-65.815
-65.818
-65.821
-65.824
-65.827
-65.829
-65.831
-65.834
-65.836
-65.837
-65.839
-65.841
-65.842
-65.843
-65.844
-65.845
-65.846
-65.847
-65.847
-65.847
-65.848
-65.848
-65.847
-65.847
-65.847
-65.846
-65.845
-65.844
-65.843
-65.842
-65.84
-65.839
-65.837
-65.835
-65.833
-65.831
-65.829
-65.826
-65.823
-65.821
-65.818
-65.814
-65.811
-65.808
-65.804
-65.8
-65.796
-65.792
-65.788
-65.784
-65.779
-65.775
-65.77
-65.765
-65.76
-65.754
-65.749
-65.743
-65.737
-65.732
-65.725
-65.719
-65.713
-65.706
-65.7
-65.693
-65.686
-65.679
-65.671
-65.664
-65.656
-65.649
-65.641
-65.633
-65.624
-65.616
-65.607
-65.599
-65.59
-65.581
-65.572
-65.563
-65.553
-65.544
-65.534
-65.524
-65.514
-65.504
-65.493
-65.483
-65.472
-65.462
-65.451
-65.44
-65.428
-65.417
-65.406
-65.394
-65.382
-65.37
-65.358
-65.346
-65.333
-65.321
-65.308
-65.295
-65.282
-65.269
-65.256
-65.242
-65.229
-65.215
-65.201
-65.187
-65.173
-65.159
-65.144
-65.13
-65.115
-65.1
-65.085
-65.07
-65.055
-65.04
-65.024
-65.008
-64.992
-64.976
-64.96
-64.944
-64.928
-64.911
-64.894
-64.878
-64.861
-64.843
-64.826
-64.809
-64.791
-64.774
-64.756
-64.738
-64.72
-64.702
-64.683
-64.665
-64.646
-64.628
-64.609
-64.59
-64.571
-64.551
-64.532
-64.512
-64.493
-64.473
-64.453
-64.433
-64.413
-64.392
-64.372
-64.351
-64.331
-64.31
-64.289
-64.268
-64.246
-64.225
-64.203
-64.182
-64.16
-64.138
-64.116
-64.094
-64.072
-64.049
-64.027
-64.004
-63.981
-63.959
-63.936
-63.912
-63.889
-63.866
-63.842
-63.819
-63.795
-63.771
-63.747
-63.723
-63.699
-63.674
-63.65
-63.625
-63.6
-63.576
-63.551
-63.526
-63.5
-63.475
-63.45
-63.424
-63.398
-63.373
-63.347
-63.321
-63.295
-63.268
-63.242
-63.215
-63.189
-63.162
-63.135
-63.108
-63.081
-63.054
-63.027
-63
-62.972
-62.944
-62.917
-62.889
-62.861
-62.833
-62.805
-62.777
-62.748
-62.72
-62.691
-62.662
-62.634
-62.605
-62.576
-62.547
-62.517
-62.488
-62.459
-62.429
-62.399
-62.37
-62.34
-62.31
-62.28
-62.249
-62.219
-62.189
-62.158
-62.128
-62.097
-62.066
-62.035
-62.004
-61.973
-61.942
-61.911
-61.88
-61.848
-61.816
-61.785
-61.753
-61.721
-61.689
-61.657
-61.625
-61.593
-61.56
-61.528
-61.495
-61.463
-61.43
-61.397
-61.364
-61.331
-61.298
-61.265
-61.232
-61.198
-61.165
-61.131
-61.097
-61.064
-61.03
-60.996
-60.962
-60.928
-60.894
-60.859
-60.825
-60.791
-60.756
-60.721
-60.687
-60.652
-60.617
-60.582
-60.547
-60.512
-60.476
-60.441
-60.406
-60.37
-60.335
-60.299
-60.263
-60.227
-60.191
-60.155
-60.119
-60.083
-60.047
-60.011
-59.974
-59.938
-59.901
-59.864
-59.828
-59.791
-59.754
-59.717
-59.68
-59.643
-59.606
-59.568
-59.531
-59.494
-59.456
-59.418
-59.381
-59.343
-59.305
-59.267
-59.229
-59.191
-59.153
-59.115
-59.077
-59.038
-59
-58.961
-58.923
-58.884
-58.845
-58.807
-58.768
-58.729
-58.69
-58.651
-58.612
-58.572
-58.533
-58.494
-58.454
-58.415
-58.375
-58.336
-58.296
-58.256
-58.216
-58.176
-58.136
-58.096
-58.056
-58.016
-57.976
-57.936
-57.895
-57.855
-57.814
-57.774
-57.733
-57.692
-57.652
-57.611
-57.57
-57.529
-57.488
-57.447
-57.406
-57.364
-57.323
-57.282
-57.24
-57.199
-57.157
-57.116
-57.074
-57.032
-56.991
-56.949
-56.907
-56.865
-56.823
-56.781
-56.739
-56.696
-56.654
-56.612
-56.569
-56.527
-56.485
-56.442
-56.399
-56.357
-56.314
-56.271
-56.228
-56.185
-56.143
-56.1
-56.056
-56.013
-55.97
-55.927
-55.884
-55.84
-55.797
-55.753
-55.71
-55.666
-55.623
-55.579
-55.535
-55.492
-55.448
-55.404
-55.36
-55.316
-55.272
-55.228
-55.184
-55.14
-55.095
-55.051
-55.007
-54.962
-54.918
-54.873
-54.829
-54.784
-54.74
-54.695
-54.65
-54.605
-54.561
-54.516
-54.471
-54.426
-54.381
-54.336
-54.29
-54.245
-54.2
-54.155
-54.109
-54.064
-54.019
-53.973
-53.928
-53.882
-53.836
-53.791
-53.745
-53.699
-53.654
-53.608
-53.562
-53.516
-53.47
-53.424
-53.378
-53.332
-53.286
-53.239
-53.193
-53.147
-53.101
-53.054
-53.008
-52.961
-52.915
-52.868
-52.822
-52.775
-52.729
-52.682
-52.635
-52.588
-52.541
-52.495
-52.448
-52.401
-52.354
-52.307
-52.26
-52.213
-52.165
-52.118
-52.071
-52.024
-51.976
-51.929
-51.882
-51.834
-51.787
-51.739
-51.692
-51.644
-51.596
-51.549
-51.501
-51.453
-51.406
-51.358
-51.31
-51.262
-51.214
-51.166
-51.118
-51.07
-51.022
-50.974
-50.926
-50.878
-50.829
-50.781
-50.733
-50.684
-50.636
-50.588
-50.539
-50.491
-50.442
-50.394
-50.345
-50.296
-50.248
-50.199
-50.15
-50.102
-50.053
-50.004
-49.955
-49.906
-49.857
-49.808
-49.76
-49.71
-49.661
-49.612
-49.563
-49.514
-49.465
-49.416
-49.366
-49.317
-49.268
-49.219
-49.169
-49.12
-49.07
-49.021
-48.971
-48.922
-48.872
-48.823
-48.773
-48.723
-48.674
-48.624
-48.574
-48.524
-48.475
-48.425
-48.375
-48.325
-48.275
-48.225
-48.175
-48.125
-48.075
-48.025
-47.975
-47.925
-47.875
-47.824
-47.774
-47.724
-47.674
-47.623
-47.573
-47.523
-47.472
-47.422
-47.371
-47.321
-47.27
-47.22
-47.169
-47.119
-47.068
-47.017
-46.967
-46.916
-46.865
-46.815
-46.764
-46.713
-46.662
-46.611
-46.561
-46.51
-46.459
-46.408
-46.357
-46.306
-46.255
-46.204
-46.153
-46.101
-46.05
-45.999
-45.948
-45.897
-45.846
-45.794
-45.743
-45.692
-45.64
-45.589
-45.538
-45.486
-45.435
-45.383
-45.332
-45.28
-45.229
-45.177
-45.126
-45.074
-45.022
-44.971
-44.919
-44.867
-44.816
-44.764
-44.712
-44.66
-44.609
-44.557
-44.505
-44.453
-44.401
-44.349
-44.297
-44.245
-44.193
-44.141
-44.089
-44.037
-43.985
-43.933
-43.881
-43.829
-43.777
-43.724
-43.672
-43.62
-43.568
-43.516
-43.463
-43.411
-43.359
-43.306
-43.254
-43.201
-43.149
-43.097
-43.044
-42.992
-42.939
-42.887
-42.834
-42.782
-42.729
-42.676
-42.624
-42.571
-42.518
-42.466
-42.413
-42.36
-42.308
-42.255
-42.202
-42.149
-42.096
-42.044
-41.991
-41.938
-41.885
-41.832
-41.779
-41.726
-41.673
-41.62
-41.567
-41.514
-41.461
-41.408
-41.355
-41.302
-41.249
-41.196
-41.143
-41.089
-41.036
-40.983
-40.93
-40.877
-40.823
-40.77
-40.717
-40.663
-40.61
-40.557
-40.503
-40.45
-40.397
-40.343
-40.29
-40.236
-40.183
-40.129
-40.076
-40.022
-39.969
-39.915
-39.862
-39.808
-39.754
-39.701
-39.647
-39.594
-39.54
-39.486
-39.432
-39.379
-39.325
-39.271
-39.218
-39.164
-39.11
-39.056
-39.002
-38.948
-38.895
-38.841
-38.787
-38.733
-38.679
-38.625
-38.571
-38.517
-38.463
-38.409
-38.355
-38.301
-38.247
-38.193
-38.139
-38.085
-38.031
-37.977
-37.923
-37.868
-37.814
-37.76
-37.706
-37.652
-37.597
-37.543
-37.489
-37.435
-37.38
-37.326
-37.272
-37.218
-37.163
-37.109
-37.054
-37
-36.946
-36.891
-36.837
-36.782
-36.728
-36.674
-36.619
-36.565
-36.51
-36.456
-36.401
-36.347
-36.292
-36.237
-36.183
-36.128
-36.074
-36.019
-35.964
-35.91
-35.855
-35.8
-35.746
-35.691
-35.636
-35.582
-35.527
-35.472
-35.417
-35.363
-35.308
-35.253
-35.198
-35.143
-35.089
-35.034
-34.979
-34.924
-34.869
-34.814
-34.759
-34.704
-34.65
-34.595
-34.54
-34.485
-34.43
-34.375
-34.32
-34.265
-34.21
-34.155
-34.1
-34.045
-33.989
-33.934
-33.879
-33.824
-33.769
-33.714
-33.659
-33.604
-33.548
-33.493
-33.438
-33.383
-33.328
-33.272
-33.217
-33.162
-33.107
-33.052
-32.996
-32.941
-32.886
-32.83
-32.775
-32.72
-32.664
-32.609
-32.554
-32.498
-32.443
-32.388
-32.332
-32.277
-32.221
-32.166
-32.11
-32.055
-32
-31.944
-31.889
-31.833
-31.778
-31.722
-31.667
-31.611
-31.556
-31.5
-31.444
-31.389
-31.333
-31.278
-31.222
-31.166
-31.111
-31.055
-31
-30.944
-30.888
-30.833
-30.777
-30.721
-30.666
-30.61
-30.554
-30.498
-30.443
-30.387
-30.331
-30.275
-30.22
-30.164
-30.108
-30.052
-29.996
-29.941
-29.885
-29.829
-29.773
-29.717
-29.661
-29.606
-29.55
-29.494
-29.438
-29.382
-29.326
-29.27
-29.214
-29.158
-29.102
-29.046
-28.99
-28.934
-28.878
-28.822
-28.766
-28.71
-28.654
-28.598
-28.542
-28.486
-28.43
-28.374
-28.318
-28.262
-28.206
-28.15
-28.094
-28.038
-27.982
-27.926
-27.869
-27.813
-27.757
-27.701
-27.645
-27.589
-27.532
-27.476
-27.42
-27.364
-27.308
-27.251
-27.195
-27.139
-27.083
-27.027
-26.97
-26.914
-26.858
-26.802
-26.745
-26.689
-26.633
-26.576
-26.52
-26.464
-26.407
-26.351
-26.295
-26.238
-26.182
-26.126
-26.069
-26.013
-25.957
-25.9
-25.844
-25.787
-25.731
-25.674
-25.618
-25.562
-25.505
-25.449
-25.392
-25.336
-25.279
-25.223
-25.166
-25.11
-25.053
-24.997
-24.94
-24.884
-24.827
-24.771
-24.714
-24.658
-24.601
-24.545
-24.488
-24.432
-24.375
-24.318
-24.262
-24.205
-24.149
-24.092
-24.035
-23.979
-23.922
-23.866
-23.809
-23.752
-23.696
-23.639
-23.582
-23.526
-23.469
-23.412
-23.356
-23.299
-23.242
-23.186
-23.129
-23.072
-23.015
-22.959
-22.902
-22.845
-22.788
-22.732
-22.675
-22.618
-22.561
-22.505
-22.448
-22.391
-22.334
-22.278
-22.221
-22.164
-22.107
-22.05
-21.993
-21.937
-21.88
-21.823
-21.766
-21.709
-21.652
-21.596
-21.539
-21.482
-21.425
-21.368
-21.311
-21.254
-21.197
-21.141
-21.084
-21.027
-20.97
-20.913
-20.856
-20.799
-20.742
-20.685
-20.628
-20.571
-20.514
-20.457
-20.4
-20.343
-20.286
-20.229
-20.172
-20.115
-20.058
-20.001
-19.944
-19.887
-19.83
-19.773
-19.716
-19.659
-19.602
-19.545
-19.488
-19.431
-19.374
-19.317
-19.26
-19.203
-19.146
-19.089
-19.032
-18.975
-18.917
-18.86
-18.803
-18.746
-18.689
-18.632
-18.575
-18.518
-18.461
-18.403
-18.346
-18.289
-18.232
-18.175
-18.118
-18.061
-18.003
-17.946
-17.889
-17.832
-17.775
-17.718
-17.66
-17.603
-17.546
-17.489
-17.432
-17.374
-17.317
-17.26
-17.203
-17.145
-17.088
-17.031
-16.974
-16.917
-16.859
-16.802
-16.745
-16.688
-16.63
-16.573
-16.516
-16.458
-16.401
-16.344
-16.287
-16.229
-16.172
-16.115
-16.057
-16
-15.943
-15.886
-15.828
-15.771
-15.714
-15.656
-15.599
-15.542
-15.484
-15.427
-15.37
-15.312
-15.255
-15.198
-15.14
-15.083
-15.026
-14.968
-14.911
-14.853
-14.796
-14.739
-14.681
-14.624
-14.567
-14.509
-14.452
-14.394
-14.337
-14.28
-14.222
-14.165
-14.107
-14.05
-13.993
-13.935
-13.878
-13.82
-13.763
-13.705
-13.648
-13.591
-13.533
-13.476
-13.418
-13.361
-13.303
-13.246
-13.188
-13.131
-13.073
-13.016
-12.959
-12.901
-12.844
-12.786
-12.729
-12.671
-12.614
-12.556
-12.499
-12.441
-12.384
-12.326
-12.269
-12.211
-12.154
-12.096
-12.039
-11.981
-11.924
-11.866
-11.809
-11.751
-11.693
-11.636
-11.578
-11.521
-11.463
-11.406
-11.348
-11.291
-11.233
-11.176
-11.118
-11.06
-11.003
-10.945
-10.888
-10.83
-10.773
-10.715
-10.658
-10.6
-10.542
-10.485
-10.427
-10.37
-10.312
-10.254
-10.197
-10.139
-10.082
-10.024
-9.966
-9.909
-9.851
-9.794
-9.736
-9.678
-9.621
-9.563
-9.506
-9.448
-9.39
-9.333
-9.275
-9.217
-9.16
-9.102
-9.045
-8.987
-8.929
-8.872
-8.814
-8.756
-8.699
-8.641
-8.583
-8.526
-8.468
-8.411
-8.353
-8.295
-8.238
-8.18
-8.122
-8.065
-8.007
-7.949
-7.892
-7.834
-7.776
-7.719
-7.661
-7.603
-7.546
-7.488
-7.43
-7.372
-7.315
-7.257
-7.199
-7.142
-7.084
-7.026
-6.969
-6.911
-6.853
-6.796
-6.738
-6.68
-6.622
-6.565
-6.507
-6.449
-6.392
-6.334
-6.276
-6.219
-6.161
-6.103
-6.045
-5.988
-5.93
-5.872
-5.815
-5.757
-5.699
-5.641
-5.584
-5.526
-5.468
-5.41
-5.353
-5.295
-5.237
-5.18
-5.122
-5.064
-5.006
-4.949
-4.891
-4.833
-4.775
-4.718
-4.66
-4.602
-4.544
-4.487
-4.429
-4.371
-4.313
-4.256
-4.198
-4.14
-4.082
-4.025
-3.967
-3.909
-3.851
-3.794
-3.736
-3.678
-3.62
-3.563
-3.505
-3.447
-3.389
-3.332
-3.274
-3.216
-3.158
-3.101
-3.043
-2.985
-2.927
-2.869
-2.812
-2.754
-2.696
-2.638
-2.581
-2.523
-2.465
-2.407
-2.35
-2.292
-2.234
-2.176
-2.118
-2.061
-2.003
-1.945
-1.887
-1.83
-1.772
-1.714
-1.656
-1.598
-1.541
-1.483
-1.425
-1.367
-1.31
-1.252
-1.194
-1.136
-1.078
-1.021
-0.963
-0.905
-0.847
-0.79
-0.732
-0.674
-0.616
-0.558
-0.501
-0.443
-0.385
-0.327
-0.27
-0.212
-0.154
-0.096
-0.038
0.019
0.077
0.135
0.193
0.25
0.308
0.366
0.424
0.482
0.539
0.597
0.655
0.713
0.77
0.828
0.886
0.944
1.002
1.059
1.117
1.175
1.233
1.29
1.348
1.406
1.464
1.522
1.579
1.637
1.695
1.753
1.81
1.868
1.926
1.984
2.042
2.099
2.157
2.215
2.273
2.33
2.388
2.446
2.504
2.562
2.619
2.677
2.735
2.793
2.85
2.908
2.966
3.024
3.081
3.139
3.197
3.255
3.312
3.37
3.428
3.486
3.544
3.601
3.659
3.717
3.775
3.832
3.89
3.948
4.006
4.063
4.121
4.179
4.237
4.294
4.352
4.41
4.468
4.525
4.583
4.641
4.699
4.756
4.814
4.872
4.929
4.987
5.045
5.103
5.16
5.218
5.276
5.334
5.391
5.449
5.507
5.565
5.622
5.68
5.738
5.795
5.853
5.911
5.969
6.026
6.084
6.142
6.199
6.257
6.315
6.373
6.43
6.488
6.546
6.603
6.661
6.719
6.777
6.834
6.892
6.95
7.007
7.065
7.123
7.18
7.238
7.296
7.353
7.411
7.469
7.526
7.584
7.642
7.7
7.757
7.815
7.873
7.93
7.988
8.046
8.103
8.161
8.219
8.276
8.334
8.391
8.449
8.507
8.564
8.622
8.68
8.737
8.795
8.853
8.91
8.968
9.026
9.083
9.141
9.198
9.256
9.314
9.371
9.429
9.487
9.544
9.602
9.659
9.717
9.775
9.832
9.89
9.947
10.005
10.063
10.12
10.178
10.235
10.293
10.351
10.408
10.466
10.523
10.581
10.639
10.696
10.754
10.811
10.869
10.926
10.984
11.042
11.099
11.157
11.214
11.272
11.329
11.387
11.444
11.502
11.559
11.617
11.675
11.732
11.79
11.847
11.905
11.962
12.02
12.077
12.135
12.192
12.25
12.307
12.365
12.422
12.48
12.537
12.595
12.652
12.71
12.767
12.825
12.882
12.94
12.997
13.055
13.112
13.169
13.227
13.284
13.342
13.399
13.457
13.514
13.572
13.629
13.687
13.744
13.801
13.859
13.916
13.974
14.031
14.089
14.146
14.203
14.261
14.318
14.376
14.433
14.49
14.548
14.605
14.662
14.72
14.777
14.835
14.892
14.949
15.007
15.064
15.121
15.179
15.236
15.293
15.351
15.408
15.466
15.523
15.58
15.638
15.695
15.752
15.809
15.867
15.924
15.981
16.039
16.096
16.153
16.211
16.268
16.325
16.382
16.44
16.497
16.554
16.611
16.669
16.726
16.783
16.841
16.898
16.955
17.012
17.069
17.127
17.184
17.241
17.298
17.356
17.413
17.47
17.527
17.584
17.642
17.699
17.756
17.813
17.87
17.927
17.985
18.042
18.099
18.156
18.213
18.27
18.328
18.385
18.442
18.499
18.556
18.613
18.67
18.727
18.785
18.842
18.899
18.956
19.013
19.07
19.127
19.184
19.241
19.298
19.355
19.412
19.469
19.527
19.584
19.641
19.698
19.755
19.812
19.869
19.926
19.983
20.04
20.097
20.154
20.211
20.268
20.325
20.382
20.439
20.496
20.553
20.61
20.667
20.723
20.78
20.837
20.894
20.951
21.008
21.065
21.122
21.179
21.236
21.293
21.35
21.406
21.463
21.52
21.577
21.634
21.691
21.748
21.804
21.861
21.918
21.975
22.032
22.089
22.145
22.202
22.259
22.316
22.373
22.429
22.486
22.543
22.6
22.656
22.713
22.77
22.827
22.883
22.94
22.997
23.054
23.11
23.167
23.224
23.281
23.337
23.394
23.451
23.507
23.564
23.621
23.677
23.734
23.791
23.847
23.904
23.96
24.017
24.074
24.13
24.187
24.243
24.3
24.357
24.413
24.47
24.526
24.583
24.639
24.696
24.753
24.809
24.866
24.922
24.979
25.035
25.092
25.148
25.205
25.261
25.318
25.374
25.43
25.487
25.543
25.6
25.656
25.713
25.769
25.825
25.882
25.938
25.995
26.051
26.107
26.164
26.22
26.276
26.333
26.389
26.445
26.502
26.558
26.614
26.671
26.727
26.783
26.84
26.896
26.952
27.008
27.065
27.121
27.177
27.233
27.29
27.346
27.402
27.458
27.514
27.57
27.627
27.683
27.739
27.795
27.851
27.907
27.964
28.02
28.076
28.132
28.188
28.244
28.3
28.356
28.412
28.468
28.524
28.58
28.636
28.692
28.748
28.804
28.86
28.916
28.972
29.028
29.084
29.14
29.196
29.252
29.308
29.364
29.42
29.476
29.532
29.588
29.643
29.699
29.755
29.811
29.867
29.923
29.978
30.034
30.09
30.146
30.202
30.257
30.313
30.369
30.425
30.48
30.536
30.592
30.648
30.703
30.759
30.815
30.87
30.926
30.982
31.037
31.093
31.149
31.204
31.26
31.315
31.371
31.427
31.482
31.538
31.593
31.649
31.704
31.76
31.815
31.871
31.926
31.982
32.037
32.093
32.148
32.204
32.259
32.314
32.37
32.425
32.481
32.536
32.591
32.647
32.702
32.757
32.813
32.868
32.923
32.979
33.034
33.089
33.144
33.2
33.255
33.31
33.365
33.42
33.476
33.531
33.586
33.641
33.696
33.751
33.807
33.862
33.917
33.972
34.027
34.082
34.137
34.192
34.247
34.302
34.357
34.412
34.467
34.522
34.577
34.632
34.687
34.742
34.797
34.852
34.906
34.961
35.016
35.071
35.126
35.181
35.236
35.29
35.345
35.4
35.455
35.509
35.564
35.619
35.674
35.728
35.783
35.838
35.892
35.947
36.002
36.056
36.111
36.165
36.22
36.275
36.329
36.384
36.438
36.493
36.547
36.602
36.656
36.711
36.765
36.82
36.874
36.928
36.983
37.037
37.092
37.146
37.2
37.255
37.309
37.363
37.417
37.472
37.526
37.58
37.634
37.689
37.743
37.797
37.851
37.905
37.959
38.014
38.068
38.122
38.176
38.23
38.284
38.338
38.392
38.446
38.5
38.554
38.608
38.662
38.716
38.77
38.824
38.878
38.931
38.985
39.039
39.093
39.147
39.2
39.254
39.308
39.362
39.415
39.469
39.523
39.577
39.63
39.684
39.737
39.791
39.845
39.898
39.952
40.005
40.059
40.112
40.166
40.219
40.273
40.326
40.38
40.433
40.486
40.54
40.593
40.646
40.7
40.753
40.806
40.86
40.913
40.966
41.019
41.073
41.126
41.179
41.232
41.285
41.338
41.391
41.444
41.497
41.55
41.604
41.657
41.709
41.762
41.815
41.868
41.921
41.974
42.027
42.08
42.133
42.185
42.238
42.291
42.344
42.396
42.449
42.502
42.554
42.607
42.66
42.712
42.765
42.818
42.87
42.923
42.975
43.028
43.08
43.133
43.185
43.237
43.29
43.342
43.394
43.447
43.499
43.551
43.604
43.656
43.708
43.76
43.812
43.865
43.917
43.969
44.021
44.073
44.125
44.177
44.229
44.281
44.333
44.385
44.437
44.489
44.54
44.592
44.644
44.696
44.748
44.799
44.851
44.903
44.955
45.006
45.058
45.109
45.161
45.213
45.264
45.316
45.367
45.419
45.47
45.521
45.573
45.624
45.676
45.727
45.778
45.829
45.881
45.932
45.983
46.034
46.085
46.137
46.188
46.239
46.29
46.341
46.392
46.443
46.494
46.545
46.595
46.646
46.697
46.748
46.799
46.85
46.9
46.951
47.002
47.052
47.103
47.153
47.204
47.255
47.305
47.356
47.406
47.456
47.507
47.557
47.608
47.658
47.708
47.758
47.809
47.859
47.909
47.959
48.009
48.059
48.109
48.159
48.209
48.259
48.309
48.359
48.409
48.459
48.509
48.559
48.608
48.658
48.708
48.757
48.807
48.857
48.906
48.956
49.005
49.055
49.104
49.154
49.203
49.252
49.302
49.351
49.4
49.45
49.499
49.548
49.597
49.646
49.695
49.744
49.793
49.842
49.891
49.94
49.989
50.038
50.086
50.135
50.184
50.233
50.281
50.33
50.378
50.427
50.476
50.524
50.572
50.621
50.669
50.718
50.766
50.814
50.862
50.911
50.959
51.007
51.055
51.103
51.151
51.199
51.247
51.295
51.343
51.391
51.438
51.486
51.534
51.582
51.629
51.677
51.724
51.772
51.819
51.867
51.914
51.962
52.009
52.056
52.103
52.151
52.198
52.245
52.292
52.339
52.386
52.433
52.48
52.527
52.574
52.62
52.667
52.714
52.761
52.807
52.854
52.9
52.947
52.993
53.04
53.086
53.133
53.179
53.225
53.271
53.317
53.364
53.41
53.456
53.502
53.548
53.593
53.639
53.685
53.731
53.777
53.822
53.868
53.913
53.959
54.004
54.05
54.095
54.141
54.186
54.231
54.276
54.321
54.367
54.412
54.457
54.502
54.546
54.591
54.636
54.681
54.726
54.77
54.815
54.859
54.904
54.948
54.993
55.037
55.081
55.126
55.17
55.214
55.258
55.302
55.346
55.39
55.434
55.478
55.522
55.565
55.609
55.653
55.696
55.74
55.783
55.827
55.87
55.913
55.957
56
56.043
56.086
56.129
56.172
56.215
56.258
56.301
56.343
56.386
56.429
56.471
56.514
56.556
56.598
56.641
56.683
56.725
56.767
56.81
56.852
56.894
56.935
56.977
57.019
57.061
57.103
57.144
57.186
57.227
57.269
57.31
57.351
57.393
57.434
57.475
57.516
57.557
57.598
57.639
57.679
57.72
57.761
57.801
57.842
57.882
57.923
57.963
58.003
58.044
58.084
58.124
58.164
58.204
58.244
58.283
58.323
58.363
58.402
58.442
58.481
58.521
58.56
58.599
58.638
58.677
58.716
58.755
58.794
58.833
58.872
58.91
58.949
58.988
59.026
59.064
59.103
59.141
59.179
59.217
59.255
59.293
59.331
59.369
59.406
59.444
59.482
59.519
59.556
59.594
59.631
59.668
59.705
59.742
59.779
59.816
59.853
59.889
59.926
59.962
59.999
60.035
60.071
60.108
60.144
60.18
60.216
60.252
60.287
60.323
60.359
60.394
60.43
60.465
60.5
60.535
60.571
60.606
60.64
60.675
60.71
60.745
60.779
60.814
60.848
60.882
60.917
60.951
60.985
61.019
61.053
61.086
61.12
61.154
61.187
61.221
61.254
61.287
61.32
61.353
61.386
61.419
61.452
61.485
61.517
61.55
61.582
61.614
61.646
61.679
61.711
61.742
61.774
61.806
61.838
61.869
61.9
61.932
61.963
61.994
62.025
62.056
62.087
62.118
62.148
62.179
62.209
62.239
62.27
62.3
62.33
62.36
62.389
62.419
62.449
62.478
62.507
62.537
62.566
62.595
62.624
62.653
62.681
62.71
62.738
62.767
62.795
62.823
62.851
62.879
62.907
62.935
62.963
62.99
63.018
63.045
63.072
63.099
63.126
63.153
63.18
63.206
63.233
63.259
63.285
63.312
63.338
63.364
63.389
63.415
63.441
63.466
63.491
63.517
63.542
63.567
63.592
63.616
63.641
63.666
63.69
63.714
63.738
63.762
63.786
63.81
63.834
63.857
63.881
63.904
63.927
63.95
63.973
63.996
64.019
64.041
64.064
64.086
64.108
64.13
64.152
64.174
64.195
64.217
64.238
64.26
64.281
64.302
64.323
64.343
64.364
64.385
64.405
64.425
64.445
64.465
64.485
64.505
64.524
64.544
64.563
64.582
64.601
64.62
64.639
64.658
64.676
64.695
64.713
64.731
64.749
64.767
64.784
64.802
64.819
64.837
64.854
64.871
64.888
64.904
64.921
64.937
64.954
64.97
64.986
65.002
65.017
65.033
65.048
65.064
65.079
65.094
65.109
65.124
65.138
65.153
65.167
65.181
65.195
65.209
65.223
65.236
65.25
65.263
65.276
65.289
65.302
65.315
65.328
65.34
65.352
65.364
65.376
65.388
65.4
65.412
65.423
65.434
65.445
65.456
65.467
65.478
65.488
65.499
65.509
65.519
65.529
65.539
65.548
65.558
65.567
65.576
65.585
65.594
65.603
65.611
65.62
65.628
65.636
65.644
65.652
65.659
65.667
65.674
65.681
65.688
65.695
65.702
65.709
65.715
65.721
65.727
65.733
65.739
65.745
65.75
65.756
65.761
65.766
65.771
65.775
65.78
65.784
65.789
65.793
65.797
65.8
65.804
65.808
65.811
65.814
65.817
65.82
65.823
65.825
65.828
65.83
65.832
65.834
65.836
65.837
65.839
65.84
65.841
65.842
65.843
65.844
65.844
65.845
65.845
65.845
65.845
65.844
65.844
65.843
65.843
65.842
65.841
65.84
65.838
65.837
65.835
65.833
65.831
65.829
65.827
65.824
65.822
65.819
65.816
65.813
65.81
65.807
65.803
65.799
65.795
65.791
65.787
65.783
65.779
65.774
65.769
65.764
65.759
65.754
65.749
65.743
65.737
65.731
65.725
65.719
65.713
65.707
65.7
65.693
65.686
65.679
65.672
65.665
65.657
65.649
65.641
65.633
65.625
65.617
65.609
65.6
65.591
65.582
65.573
65.564
65.555
65.545
65.536
65.526
65.516
65.506
65.495
65.485
65.474
65.464
65.453
65.442
65.431
65.419
65.408
65.396
65.385
65.373
65.361
65.349
65.336
65.324
65.311
65.298
65.285
65.272
65.259
65.246
65.232
65.219
65.205
65.191
65.177
65.163
65.148
65.134
65.119
65.104
65.089
65.074
65.059
65.044
65.028
65.013
64.997
64.981
64.965
64.949
64.932
64.916
64.899
64.882
64.866
64.848
64.831
64.814
64.797
64.779
64.761
64.743
64.725
64.707
64.689
64.671
64.652
64.633
64.614
64.596
64.576
64.557
64.538
64.518
64.499
64.479
64.459
64.439
64.419
64.399
64.378
64.358
64.337
64.316
64.295
64.274
64.253
64.232
64.21
64.189
64.167
64.145
64.123
64.101
64.079
64.057
64.034
64.012
63.989
63.966
63.943
63.92
63.897
63.874
63.85
63.827
63.803
63.779
63.755
63.731
63.707
63.682
63.658
63.634
63.609
63.584
63.559
63.534
63.509
63.484
63.458
63.433
63.407
63.381
63.356
63.33
63.304
63.277
63.251
63.225
63.198
63.171
63.145
63.118
63.091
63.064
63.036
63.009
62.982
62.954
62.926
62.899
62.871
62.843
62.815
62.786
62.758
62.73
62.701
62.673
62.644
62.615
62.586
62.557
62.528
62.498
62.469
62.439
62.41
62.38
62.35
62.32
62.29
62.26
62.23
62.2
62.169
62.139
62.108
62.077
62.047
62.016
61.985
61.953
61.922
61.891
61.859
61.828
61.796
61.764
61.733
61.701
61.669
61.637
61.604
61.572
61.54
61.507
61.475
61.442
61.409
61.376
61.343
61.31
61.277
61.244
61.21
61.177
61.143
61.11
61.076
61.042
61.008
60.974
60.94
60.906
60.872
60.838
60.803
60.769
60.734
60.699
60.665
60.63
60.595
60.56
60.525
60.489
60.454
60.419
60.383
60.348
60.312
60.276
60.241
60.205
60.169
60.133
60.096
60.06
60.024
59.988
59.951
59.915
59.878
59.841
59.804
59.768
59.731
59.694
59.657
59.619
59.582
59.545
59.507
59.47
59.432
59.395
59.357
59.319
59.281
59.243
59.205
59.167
59.129
59.091
59.053
59.014
58.976
58.937
58.899
58.86
58.821
58.782
58.743
58.704
58.665
58.626
58.587
58.548
58.508
58.469
58.43
58.39
58.35
58.311
58.271
58.231
58.191
58.151
58.111
58.071
58.031
57.991
57.951
57.91
57.87
57.829
57.789
57.748
57.708
57.667
57.626
57.585
57.544
57.503
57.462
57.421
57.38
57.338
57.297
57.256
57.214
57.173
57.131
57.09
57.048
57.006
56.964
56.922
56.881
56.839
56.797
56.754
56.712
56.67
56.628
56.585
56.543
56.5
56.458
56.415
56.373
56.33
56.287
56.244
56.202
56.159
56.116
56.073
56.03
55.986
55.943
55.9
55.857
55.813
55.77
55.726
55.683
55.639
55.596
55.552
55.508
55.464
55.42
55.377
55.333
55.289
55.244
55.2
55.156
55.112
55.068
55.023
54.979
54.935
54.89
54.846
54.801
54.756
54.712
54.667
54.622
54.577
54.532
54.488
54.443
54.398
54.353
54.307
54.262
54.217
54.172
54.126
54.081
54.036
53.99
53.945
53.899
53.854
53.808
53.762
53.717
53.671
53.625
53.579
53.533
53.487
53.441
53.395
53.349
53.303
53.257
53.211
53.164
53.118
53.072
53.025
52.979
52.932
52.886
52.839
52.793
52.746
52.699
52.653
52.606
52.559
52.512
52.465
52.418
52.371
52.324
52.277
52.23
52.183
52.136
52.089
52.041
51.994
51.947
51.899
51.852
51.805
51.757
51.709
51.662
51.614
51.567
51.519
51.471
51.423
51.376
51.328
51.28
51.232
51.184
51.136
51.088
51.04
50.992
50.944
50.896
50.847
50.799
50.751
50.702
50.654
50.606
50.557
50.509
50.46
50.412
50.363
50.315
50.266
50.217
50.169
50.12
50.071
50.022
49.974
49.925
49.876
49.827
49.778
49.729
49.68
49.631
49.582
49.532
49.483
49.434
49.385
49.336
49.286
49.237
49.188
49.138
49.089
49.039
48.99
48.94
48.891
48.841
48.792
48.742
48.692
48.642
48.593
48.543
48.493
48.443
48.393
48.344
48.294
48.244
48.194
48.144
48.094
48.044
47.994
47.943
47.893
47.843
47.793
47.743
47.692
47.642
47.592
47.541
47.491
47.441
47.39
47.34
47.289
47.239
47.188
47.138
47.087
47.036
46.986
46.935
46.884
46.834
46.783
46.732
46.681
46.63
46.579
46.529
46.478
46.427
46.376
46.325
46.274
46.223
46.172
46.12
46.069
46.018
45.967
45.916
45.865
45.813
45.762
45.711
45.659
45.608
45.557
45.505
45.454
45.402
45.351
45.299
45.248
45.196
45.145
45.093
45.042
44.99
44.938
44.887
44.835
44.783
44.731
44.68
44.628
44.576
44.524
44.472
44.42
44.368
44.316
44.265
44.213
44.161
44.109
44.056
44.004
43.952
43.9
43.848
43.796
43.744
43.692
43.639
43.587
43.535
43.482
43.43
43.378
43.326
43.273
43.221
43.168
43.116
43.063
43.011
42.958
42.906
42.853
42.801
42.748
42.696
42.643
42.59
42.538
42.485
42.432
42.38
42.327
42.274
42.221
42.169
42.116
42.063
42.01
41.957
41.904
41.851
41.799
41.746
41.693
41.64
41.587
41.534
41.481
41.428
41.374
41.321
41.268
41.215
41.162
41.109
41.056
41.002
40.949
40.896
40.843
40.789
40.736
40.683
40.63
40.576
40.523
40.469
40.416
40.363
40.309
40.256
40.202
40.149
40.095
40.042
39.988
39.935
39.881
39.828
39.774
39.72
39.667
39.613
39.559
39.506
39.452
39.398
39.345
39.291
39.237
39.183
39.13
39.076
39.022
38.968
38.914
38.86
38.806
38.753
38.699
38.645
38.591
38.537
38.483
38.429
38.375
38.321
38.267
38.213
38.159
38.104
38.05
37.996
37.942
37.888
37.834
37.78
37.725
37.671
37.617
37.563
37.509
37.454
37.4
37.346
37.291
37.237
37.183
37.128
37.074
37.02
36.965
36.911
36.857
36.802
36.748
36.693
36.639
36.584
36.53
36.475
36.421
36.366
36.312
36.257
36.203
36.148
36.093
36.039
35.984
35.929
35.875
35.82
35.765
35.711
35.656
35.601
35.547
35.492
35.437
35.382
35.328
35.273
35.218
35.163
35.108
35.053
34.999
34.944
34.889
34.834
34.779
34.724
34.669
34.614
34.559
34.504
34.449
34.394
34.339
34.284
34.229
34.174
34.119
34.064
34.009
33.954
33.899
33.844
33.789
33.734
33.678
33.623
33.568
33.513
33.458
33.403
33.347
33.292
33.237
33.182
33.126
33.071
33.016
32.961
32.905
32.85
32.795
32.739
32.684
32.629
32.573
32.518
32.463
32.407
32.352
32.296
32.241
32.186
32.13
32.075
32.019
31.964
31.908
31.853
31.797
31.742
31.686
31.631
31.575
31.52
31.464
31.409
31.353
31.297
31.242
31.186
31.131
31.075
31.019
30.964
30.908
30.852
30.797
30.741
30.685
30.63
30.574
30.518
30.462
30.407
30.351
30.295
30.239
30.184
30.128
30.072
30.016
29.96
29.905
29.849
29.793
29.737
29.681
29.625
29.569
29.514
29.458
29.402
29.346
29.29
29.234
29.178
29.122
29.066
29.01
28.954
28.898
28.842
28.786
28.73
28.674
28.618
28.562
28.506
28.45
28.394
28.338
28.282
28.226
28.17
28.114
28.057
28.001
27.945
27.889
27.833
27.777
27.721
27.664
27.608
27.552
27.496
27.44
27.384
27.327
27.271
27.215
27.159
27.102
27.046
26.99
26.934
26.877
26.821
26.765
26.709
26.652
26.596
26.54
26.483
26.427
26.371
26.314
26.258
26.202
26.145
26.089
26.033
25.976
25.92
25.863
25.807
25.751
25.694
25.638
25.581
25.525
25.468
25.412
25.355
25.299
25.243
25.186
25.13
25.073
25.017
24.96
24.904
24.847
24.79
24.734
24.677
24.621
24.564
24.508
24.451
24.395
24.338
24.281
24.225
24.168
24.112
24.055
23.998
23.942
23.885
23.829
23.772
23.715
23.659
23.602
23.545
23.489
23.432
23.375
23.319
23.262
23.205
23.148
23.092
23.035
22.978
22.922
22.865
22.808
22.751
22.695
22.638
22.581
22.524
22.467
22.411
22.354
22.297
22.24
22.183
22.127
22.07
22.013
21.956
21.899
21.843
21.786
21.729
21.672
21.615
21.558
21.501
21.444
21.388
21.331
21.274
21.217
21.16
21.103
21.046
20.989
20.932
20.875
20.818
20.762
20.705
20.648
20.591
20.534
20.477
20.42
20.363
20.306
20.249
20.192
20.135
20.078
20.021
19.964
19.907
19.85
19.793
19.736
19.679
19.622
19.565
19.508
19.451
19.393
19.336
19.279
19.222
19.165
19.108
19.051
18.994
18.937
18.88
18.823
18.766
18.708
18.651
18.594
18.537
18.48
18.423
18.366
18.309
18.251
18.194
18.137
18.08
18.023
17.966
17.908
17.851
17.794
17.737
17.68
17.623
17.565
17.508
17.451
17.394
17.336
17.279
17.222
17.165
17.108
17.05
16.993
16.936
16.879
16.821
16.764
16.707
16.65
16.592
16.535
16.478
16.421
16.363
16.306
16.249
16.191
16.134
16.077
16.02
15.962
15.905
15.848
15.79
15.733
15.676
15.618
15.561
15.504
15.446
15.389
15.332
15.274
15.217
15.16
15.102
15.045
14.988
14.93
14.873
14.815
14.758
14.701
14.643
14.586
14.528
14.471
14.414
14.356
14.299
14.241
14.184
14.127
14.069
14.012
13.954
13.897
13.84
13.782
13.725
13.667
13.61
13.552
13.495
13.437
13.38
13.323
13.265
13.208
13.15
13.093
13.035
12.978
12.92
12.863
12.805
12.748
12.69
12.633
12.575
12.518
12.46
12.403
12.345
12.288
12.23
12.173
12.115
12.058
12
11.943
11.885
11.828
11.77
11.713
11.655
11.598
11.54
11.482
11.425
11.367
11.31
11.252
11.195
11.137
11.08
11.022
10.965
10.907
10.849
10.792
10.734
10.677
10.619
10.561
10.504
10.446
10.389
10.331
10.274
10.216
10.158
10.101
10.043
9.986
9.928
9.87
9.813
9.755
9.698
9.64
9.582
9.525
9.467
9.409
9.352
9.294
9.237
9.179
9.121
9.064
9.006
8.948
8.891
8.833
8.775
8.718
8.66
8.603
8.545
8.487
8.43
8.372
8.314
8.257
8.199
8.141
8.084
8.026
7.968
7.911
7.853
7.795
7.738
7.68
7.622
7.565
7.507
7.449
7.391
7.334
7.276
7.218
7.161
7.103
7.045
6.988
6.93
6.872
6.815
6.757
6.699
6.641
6.584
6.526
6.468
6.411
6.353
6.295
6.237
6.18
6.122
6.064
6.007
5.949
5.891
5.833
5.776
5.718
5.66
5.603
5.545
5.487
5.429
5.372
5.314
5.256
5.198
5.141
5.083
5.025
4.967
4.91
4.852
4.794
4.736
4.679
4.621
4.563
4.506
4.448
4.39
4.332
4.275
4.217
4.159
4.101
4.044
3.986
3.928
3.87
3.812
3.755
3.697
3.639
3.581
3.524
3.466
3.408
3.35
3.293
3.235
3.177
3.119
3.062
3.004
2.946
2.888
2.83
2.773
2.715
2.657
2.599
2.542
2.484
2.426
2.368
2.311
2.253
2.195
2.137
2.079
2.022
1.964
1.906
1.848
1.791
1.733
1.675
1.617
1.559
1.502
1.444
1.386
1.328
1.271
1.213
1.155
1.097
1.039
0.982
0.924
0.866
0.808
0.751
0.693
0.635
0.577
0.519
0.462
0.404
0.346
0.288
0.23
0.173
0.115
0.057
-0.001
-0.058
-0.116
-0.174
-0.232
-0.29
-0.347
-0.405
-0.463
-0.521
-0.578
-0.636
-0.694
-0.752
-0.81
-0.867
-0.925
-0.983
-1.041
-1.099
-1.156
-1.214
-1.272
-1.33
-1.387
-1.445
-1.503
-1.561
-1.619
-1.676
-1.734
-1.792
-1.85
-1.907
-1.965
-2.023
-2.081
-2.139
-2.196
-2.254
-2.312
-2.37
-2.427
-2.485
-2.543
-2.601
-2.658
-2.716
-2.774
-2.832
-2.89
-2.947
-3.005
-3.063
-3.121
-3.178
-3.236
-3.294
-3.352
-3.409
-3.467
-3.525
-3.583
-3.641
-3.698
-3.756
-3.814
-3.872
-3.929
-3.987
-4.045
-4.103
-4.16
-4.218
-4.276
-4.334
-4.391
-4.449
-4.507
-4.565
-4.622
-4.68
-4.738
-4.796
-4.853
-4.911
-4.969
-5.026
-5.084
-5.142
-5.2
-5.257
-5.315
-5.373
-5.431
-5.488
-5.546
-5.604
-5.662
-5.719
-5.777
-5.835
-5.892
-5.95
-6.008
-6.066
-6.123
-6.181
-6.239
-6.296
-6.354
-6.412
-6.47
-6.527
-6.585
-6.643
-6.7
-6.758
-6.816
-6.874
-6.931
-6.989
-7.047
-7.104
-7.162
-7.22
-7.277
-7.335
-7.393
-7.45
-7.508
-7.566
-7.623
-7.681
-7.739
-7.796
-7.854
-7.912
-7.97
-8.027
-8.085
-8.143
-8.2
-8.258
-8.315
-8.373
-8.431
-8.488
-8.546
-8.604
-8.661
-8.719
-8.777
-8.834
-8.892
-8.95
-9.007
-9.065
-9.123
-9.18
-9.238
-9.295
-9.353
-9.411
-9.468
-9.526
-9.584
-9.641
-9.699
-9.756
-9.814
-9.872
-9.929
-9.987
-10.044
-10.102
-10.16
-10.217
-10.275
-10.332
-10.39
-10.448
-10.505
-10.563
-10.62
-10.678
-10.735
-10.793
-10.851
-10.908
-10.966
-11.023
-11.081
-11.138
-11.196
-11.254
-11.311
-11.369
-11.426
-11.484
-11.541
-11.599
-11.656
-11.714
-11.771
-11.829
-11.886
-11.944
-12.001
-12.059
-12.117
-12.174
-12.232
-12.289
-12.347
-12.404
-12.462
-12.519
-12.577
-12.634
-12.692
-12.749
-12.806
-12.864
-12.921
-12.979
-13.036
-13.094
-13.151
-13.209
-13.266
-13.324
-13.381
-13.439
-13.496
-13.554
-13.611
-13.668
-13.726
-13.783
-13.841
-13.898
-13.956
-14.013
-14.07
-14.128
-14.185
-14.243
-14.3
-14.357
-14.415
-14.472
-14.53
-14.587
-14.644
-14.702
-14.759
-14.817
-14.874
-14.931
-14.989
-15.046
-15.103
-15.161
-15.218
-15.275
-15.333
-15.39
-15.447
-15.505
-15.562
-15.619
-15.677
-15.734
-15.791
-15.849
-15.906
-15.963
-16.021
-16.078
-16.135
-16.193
-16.25
-16.307
-16.364
-16.422
-16.479
-16.536
-16.593
-16.651
-16.708
-16.765
-16.823
-16.88
-16.937
-16.994
-17.051
-17.109
-17.166
-17.223
-17.28
-17.338
-17.395
-17.452
-17.509
-17.566
-17.624
-17.681
-17.738
-17.795
-17.852
-17.91
-17.967
-18.024
-18.081
-18.138
-18.195
-18.252
-18.31
-18.367
-18.424
-18.481
-18.538
-18.595
-18.652
-18.71
-18.767
-18.824
-18.881
-18.938
-18.995
-19.052
-19.109
-19.166
-19.223
-19.28
-19.337
-19.395
-19.452
-19.509
-19.566
-19.623
-19.68
-19.737
-19.794
-19.851
-19.908
-19.965
-20.022
-20.079
-20.136
-20.193
-20.25
-20.307
-20.364
-20.421
-20.478
-20.535
-20.592
-20.649
-20.706
-20.763
-20.819
-20.876
-20.933
-20.99
-21.047
-21.104
-21.161
-21.218
-21.275
-21.332
-21.389
-21.445
-21.502
-21.559
-21.616
-21.673
-21.73
-21.787
-21.843
-21.9
-21.957
-22.014
-22.071
-22.128
-22.184
-22.241
-22.298
-22.355
-22.412
-22.468
-22.525
-22.582
-22.639
-22.695
-22.752
-22.809
-22.866
-22.922
-22.979
-23.036
-23.093
-23.149
-23.206
-23.263
-23.319
-23.376
-23.433
-23.489
-23.546
-23.603
-23.659
-23.716
-23.773
-23.829
-23.886
-23.943
-23.999
-24.056
-24.113
-24.169
-24.226
-24.282
-24.339
-24.395
-24.452
-24.509
-24.565
-24.622
-24.678
-24.735
-24.791
-24.848
-24.904
-24.961
-25.017
-25.074
-25.13
-25.187
-25.243
-25.3
-25.356
-25.413
-25.469
-25.526
-25.582
-25.639
-25.695
-25.751
-25.808
-25.864
-25.921
-25.977
-26.033
-26.09
-26.146
-26.202
-26.259
-26.315
-26.372
-26.428
-26.484
-26.54
-26.597
-26.653
-26.709
-26.766
-26.822
-26.878
-26.935
-26.991
-27.047
-27.103
-27.159
-27.216
-27.272
-27.328
-27.384
-27.441
-27.497
-27.553
-27.609
-27.665
-27.721
-27.778
-27.834
-27.89
-27.946
-28.002
-28.058
-28.114
-28.17
-28.226
-28.283
-28.339
-28.395
-28.451
-28.507
-28.563
-28.619
-28.675
-28.731
-28.787
-28.843
-28.899
-28.955
-29.011
-29.067
-29.123
-29.179
-29.235
-29.291
-29.346
-29.402
-29.458
-29.514
-29.57
-29.626
-29.682
-29.738
-29.794
-29.849
-29.905
-29.961
-30.017
-30.073
-30.128
-30.184
-30.24
-30.296
-30.352
-30.407
-30.463
-30.519
-30.574
-30.63
-30.686
-30.742
-30.797
-30.853
-30.909
-30.964
-31.02
-31.076
-31.131
-31.187
-31.242
-31.298
-31.354
-31.409
-31.465
-31.52
-31.576
-31.631
-31.687
-31.742
-31.798
-31.853
-31.909
-31.964
-32.02
-32.075
-32.131
-32.186
-32.242
-32.297
-32.352
-32.408
-32.463
-32.519
-32.574
-32.629
-32.685
-32.74
-32.795
-32.851
-32.906
-32.961
-33.017
-33.072
-33.127
-33.182
-33.238
-33.293
-33.348
-33.403
-33.458
-33.514
-33.569
-33.624
-33.679
-33.734
-33.789
-33.844
-33.899
-33.955
-34.01
-34.065
-34.12
-34.175
-34.23
-34.285
-34.34
-34.395
-34.45
-34.505
-34.56
-34.615
-34.67
-34.725
-34.78
-34.834
-34.889
-34.944
-34.999
-35.054
-35.109
-35.164
-35.218
-35.273
-35.328
-35.383
-35.438
-35.492
-35.547
-35.602
-35.656
-35.711
-35.766
-35.821
-35.875
-35.93
-35.985
-36.039
-36.094
-36.148
-36.203
-36.258
-36.312
-36.367
-36.421
-36.476
-36.53
-36.585
-36.639
-36.694
-36.748
-36.803
-36.857
-36.911
-36.966
-37.02
-37.074
-37.129
-37.183
-37.238
-37.292
-37.346
-37.4
-37.455
-37.509
-37.563
-37.617
-37.672
-37.726
-37.78
-37.834
-37.888
-37.942
-37.997
-38.051
-38.105
-38.159
-38.213
-38.267
-38.321
-38.375
-38.429
-38.483
-38.537
-38.591
-38.645
-38.699
-38.753
-38.807
-38.861
-38.914
-38.968
-39.022
-39.076
-39.13
-39.184
-39.237
-39.291
-39.345
-39.399
-39.452
-39.506
-39.56
-39.613
-39.667
-39.721
-39.774
-39.828
-39.881
-39.935
-39.989
-40.042
-40.096
-40.149
-40.203
-40.256
-40.309
-40.363
-40.416
-40.47
-40.523
-40.576
-40.63
-40.683
-40.736
-40.79
-40.843
-40.896
-40.949
-41.003
-41.056
-41.109
-41.162
-41.215
-41.268
-41.322
-41.375
-41.428
-41.481
-41.534
-41.587
-41.64
-41.693
-41.746
-41.799
-41.852
-41.905
-41.957
-42.01
-42.063
-42.116
-42.169
-42.222
-42.274
-42.327
-42.38
-42.433
-42.485
-42.538
-42.591
-42.643
-42.696
-42.748
-42.801
-42.854
-42.906
-42.959
-43.011
-43.064
-43.116
-43.168
-43.221
-43.273
-43.326
-43.378
-43.43
-43.483
-43.535
-43.587
-43.639
-43.692
-43.744
-43.796
-43.848
-43.9
-43.952
-44.004
-44.057
-44.109
-44.161
-44.213
-44.265
-44.317
-44.368
-44.42
-44.472
-44.524
-44.576
-44.628
-44.68
-44.731
-44.783
-44.835
-44.887
-44.938
-44.99
-45.042
-45.093
-45.145
-45.196
-45.248
-45.299
-45.351
-45.402
-45.454
-45.505
-45.557
-45.608
-45.659
-45.711
-45.762
-45.813
-45.865
-45.916
-45.967
-46.018
-46.069
-46.12
-46.172
-46.223
-46.274
-46.325
-46.376
-46.427
-46.478
-46.529
-46.579
-46.63
-46.681
-46.732
-46.783
-46.833
-46.884
-46.935
-46.986
-47.036
-47.087
-47.137
-47.188
-47.239
-47.289
-47.34
-47.39
-47.441
-47.491
-47.541
-47.592
-47.642
-47.692
-47.743
-47.793
-47.843
-47.893
-47.943
-47.993
-48.044
-48.094
-48.144
-48.194
-48.244
-48.294
-48.343
-48.393
-48.443
-48.493
-48.543
-48.593
-48.642
-48.692
-48.742
-48.791
-48.841
-48.891
-48.94
-48.99
-49.039
-49.089
-49.138
-49.187
-49.237
-49.286
-49.335
-49.385
-49.434
-49.483
-49.532
-49.581
-49.631
-49.68
-49.729
-49.778
-49.827
-49.876
-49.924
-49.973
-50.022
-50.071
-50.12
-50.168
-50.217
-50.266
-50.314
-50.363
-50.412
-50.46
-50.509
-50.557
-50.606
-50.654
-50.702
-50.751
-50.799
-50.847
-50.895
-50.944
-50.992
-51.04
-51.088
-51.136
-51.184
-51.232
-51.28
-51.328
-51.375
-51.423
-51.471
-51.519
-51.566
-51.614
-51.662
-51.709
-51.757
-51.804
-51.852
-51.899
-51.947
-51.994
-52.041
-52.088
-52.136
-52.183
-52.23
-52.277
-52.324
-52.371
-52.418
-52.465
-52.512
-52.559
-52.606
-52.652
-52.699
-52.746
-52.792
-52.839
-52.886
-52.932
-52.979
-53.025
-53.071
-53.118
-53.164
-53.21
-53.257
-53.303
-53.349
-53.395
-53.441
-53.487
-53.533
-53.579
-53.625
-53.671
-53.716
-53.762
-53.808
-53.853
-53.899
-53.944
-53.99
-54.035
-54.081
-54.126
-54.171
-54.217
-54.262
-54.307
-54.352
-54.397
-54.442
-54.487
-54.532
-54.577
-54.622
-54.667
-54.711
-54.756
-54.801
-54.845
-54.89
-54.934
-54.979
-55.023
-55.067
-55.112
-55.156
-55.2
-55.244
-55.288
-55.332
-55.376
-55.42
-55.464
-55.508
-55.552
-55.595
-55.639
-55.682
-55.726
-55.769
-55.813
-55.856
-55.9
-55.943
-55.986
-56.029
-56.072
-56.115
-56.158
-56.201
-56.244
-56.287
-56.33
-56.372
-56.415
-56.458
-56.5
-56.543
-56.585
-56.627
-56.67
-56.712
-56.754
-56.796
-56.838
-56.88
-56.922
-56.964
-57.006
-57.048
-57.089
-57.131
-57.173
-57.214
-57.255
-57.297
-57.338
-57.379
-57.421
-57.462
-57.503
-57.544
-57.585
-57.626
-57.666
-57.707
-57.748
-57.789
-57.829
-57.87
-57.91
-57.95
-57.991
-58.031
-58.071
-58.111
-58.151
-58.191
-58.231
-58.271
-58.31
-58.35
-58.39
-58.429
-58.469
-58.508
-58.547
-58.587
-58.626
-58.665
-58.704
-58.743
-58.782
-58.821
-58.86
-58.898
-58.937
-58.975
-59.014
-59.052
-59.091
-59.129
-59.167
-59.205
-59.243
-59.281
-59.319
-59.357
-59.394
-59.432
-59.47
-59.507
-59.545
-59.582
-59.619
-59.656
-59.693
-59.73
-59.767
-59.804
-59.841
-59.878
-59.914
-59.951
-59.987
-60.024
-60.06
-60.096
-60.132
-60.168
-60.204
-60.24
-60.276
-60.312
-60.347
-60.383
-60.418
-60.454
-60.489
-60.524
-60.559
-60.595
-60.629
-60.664
-60.699
-60.734
-60.768
-60.803
-60.837
-60.872
-60.906
-60.94
-60.974
-61.008
-61.042
-61.076
-61.11
-61.143
-61.177
-61.21
-61.244
-61.277
-61.31
-61.343
-61.376
-61.409
-61.442
-61.474
-61.507
-61.54
-61.572
-61.604
-61.636
-61.669
-61.701
-61.733
-61.764
-61.796
-61.828
-61.859
-61.891
-61.922
-61.953
-61.984
-62.016
-62.046
-62.077
-62.108
-62.139
-62.169
-62.2
-62.23
-62.26
-62.29
-62.32
-62.35
-62.38
-62.41
-62.439
-62.469
-62.498
-62.528
-62.557
-62.586
-62.615
-62.644
-62.673
-62.701
-62.73
-62.758
-62.787
-62.815
-62.843
-62.871
-62.899
-62.927
-62.954
-62.982
-63.009
-63.037
-63.064
-63.091
-63.118
-63.145
-63.172
-63.198
-63.225
-63.251
-63.277
-63.304
-63.33
-63.356
-63.382
-63.407
-63.433
-63.458
-63.484
-63.509
-63.534
-63.559
-63.584
-63.609
-63.634
-63.658
-63.683
-63.707
-63.731
-63.755
-63.779
-63.803
-63.827
-63.85
-63.874
-63.897
-63.92
-63.943
-63.966
-63.989
-64.012
-64.035
-64.057
-64.079
-64.102
-64.124
-64.146
-64.167
-64.189
-64.211
-64.232
-64.253
-64.275
-64.296
-64.317
-64.337
-64.358
-64.379
-64.399
-64.419
-64.44
-64.46
-64.479
-64.499
-64.519
-64.538
-64.558
-64.577
-64.596
-64.615
-64.634
-64.652
-64.671
-64.689
-64.708
-64.726
-64.744
-64.762
-64.779
-64.797
-64.815
-64.832
-64.849
-64.866
-64.883
-64.9
-64.916
-64.933
-64.949
-64.965
-64.982
-64.997
-65.013
-65.029
-65.044
-65.06
-65.075
-65.09
-65.105
-65.12
-65.134
-65.149
-65.163
-65.178
-65.192
-65.206
-65.219
-65.233
-65.247
-65.26
-65.273
-65.286
-65.299
-65.312
-65.325
-65.337
-65.349
-65.362
-65.374
-65.386
-65.397
-65.409
-65.42
-65.432
-65.443
-65.454
-65.465
-65.475
-65.486
-65.496
-65.507
-65.517
-65.527
-65.537
-65.546
-65.556
-65.565
-65.574
-65.583
-65.592
-65.601
-65.61
-65.618
-65.626
-65.635
-65.643
-65.65
-65.658
-65.666
-65.673
-65.68
-65.687
-65.694
-65.701
-65.708
-65.714
-65.72
-65.727
-65.733
-65.739
-65.744
-65.75
-65.755
-65.76
-65.766
-65.77
-65.775
-65.78
-65.784
-65.789
-65.793
-65.797
-65.801
-65.804
-65.808
-65.811
-65.815
-65.818
-65.82
-65.823
-65.826
-65.828
-65.831
-65.833
-65.835
-65.837
-65.838
-65.84
-65.841
-65.842
-65.843
-65.844
-65.845
-65.846
-65.846
-65.846
-65.846
-65.846
-65.846
-65.846
-65.845
-65.845
-65.844
-65.843
-65.842
-65.84
-65.839
-65.837
-65.836
-65.834
-65.832
-65.829
-65.827
-65.824
-65.822
-65.819
-65.816
-65.813
-65.809
-65.806
-65.802
-65.799
-65.795
-65.79
-65.786
-65.782
-65.777
-65.773
-65.768
-65.763
-65.758
-65.752
-65.747
-65.741
-65.735
-65.729
-65.723
-65.717
-65.711
-65.704
-65.697
-65.69
-65.683
-65.676
-65.669
-65.661
-65.654
-65.646
-65.638
-65.63
-65.622
-65.613
-65.605
-65.596
-65.587
-65.578
-65.569
-65.56
-65.55
-65.541
-65.531
-65.521
-65.511
-65.501
-65.491
-65.48
-65.469
-65.459
-65.448
-65.437
-65.425
-65.414
-65.402
-65.391
-65.379
-65.367
-65.355
-65.342
-65.33
-65.317
-65.305
-65.292
-65.279
-65.266
-65.252
-65.239
-65.225
-65.212
-65.198
-65.184
-65.17
-65.155
-65.141
-65.126
-65.112
-65.097
-65.082
-65.066
-65.051
-65.036
-65.02
-65.004
-64.989
-64.973
-64.956
-64.94
-64.924
-64.907
-64.89
-64.874
-64.857
-64.839
-64.822
-64.805
-64.787
-64.77
-64.752
-64.734
-64.716
-64.697
-64.679
-64.661
-64.642
-64.623
-64.604
-64.585
-64.566
-64.547
-64.527
-64.508
-64.488
-64.468
-64.448
-64.428
-64.408
-64.388
-64.367
-64.347
-64.326
-64.305
-64.284
-64.263
-64.242
-64.22
-64.199
-64.177
-64.155
-64.133
-64.111
-64.089
-64.067
-64.044
-64.022
-63.999
-63.976
-63.954
-63.931
-63.907
-63.884
-63.861
-63.837
-63.813
-63.79
-63.766
-63.742
-63.718
-63.693
-63.669
-63.645
-63.62
-63.595
-63.57
-63.545
-63.52
-63.495
-63.47
-63.444
-63.419
-63.393
-63.367
-63.341
-63.315
-63.289
-63.263
-63.236
-63.21
-63.183
-63.157
-63.13
-63.103
-63.076
-63.049
-63.021
-62.994
-62.966
-62.939
-62.911
-62.883
-62.855
-62.827
-62.799
-62.771
-62.742
-62.714
-62.685
-62.656
-62.628
-62.599
-62.57
-62.541
-62.511
-62.482
-62.452
-62.423
-62.393
-62.363
-62.334
-62.304
-62.274
-62.243
-62.213
-62.183
-62.152
-62.122
-62.091
-62.06
-62.029
-61.998
-61.967
-61.936
-61.905
-61.873
-61.842
-61.81
-61.778
-61.747
-61.715
-61.683
-61.651
-61.618
-61.586
-61.554
-61.521
-61.489
-61.456
-61.423
-61.391
-61.358
-61.325
-61.291
-61.258
-61.225
-61.192
-61.158
-61.124
-61.091
-61.057
-61.023
-60.989
-60.955
-60.921
-60.887
-60.853
-60.818
-60.784
-60.749
-60.714
-60.68
-60.645
-60.61
-60.575
-60.54
-60.505
-60.469
-60.434
-60.399
-60.363
-60.328
-60.292
-60.256
-60.22
-60.184
-60.148
-60.112
-60.076
-60.04
-60.003
-59.967
-59.931
-59.894
-59.857
-59.821
-59.784
-59.747
-59.71
-59.673
-59.636
-59.598
-59.561
-59.524
-59.486
-59.449
-59.411
-59.373
-59.336
-59.298
-59.26
-59.222
-59.184
-59.146
-59.108
-59.069
-59.031
-58.992
-58.954
-58.915
-58.877
-58.838
-58.799
-58.76
-58.721
-58.682
-58.643
-58.604
-58.565
-58.526
-58.486
-58.447
-58.407
-58.368
-58.328
-58.288
-58.249
-58.209
-58.169
-58.129
-58.089
-58.049
-58.008
-57.968
-57.928
-57.887
-57.847
-57.806
-57.766
-57.725
-57.685
-57.644
-57.603
-57.562
-57.521
-57.48
-57.439
-57.398
-57.356
-57.315
-57.274
-57.232
-57.191
-57.149
-57.108
-57.066
-57.024
-56.983
-56.941
-56.899
-56.857
-56.815
-56.773
-56.731
-56.688
-56.646
-56.604
-56.561
-56.519
-56.477
-56.434
-56.391
-56.349
-56.306
-56.263
-56.22
-56.177
-56.134
-56.091
-56.048
-56.005
-55.962
-55.919
-55.876
-55.832
-55.789
-55.745
-55.702
-55.658
-55.615
-55.571
-55.527
-55.483
-55.44
-55.396
-55.352
-55.308
-55.264
-55.22
-55.176
-55.131
-55.087
-55.043
-54.998
-54.954
-54.91
-54.865
-54.821
-54.776
-54.731
-54.687
-54.642
-54.597
-54.552
-54.507
-54.462
-54.417
-54.372
-54.327
-54.282
-54.237
-54.192
-54.146
-54.101
-54.056
-54.01
-53.965
-53.919
-53.874
-53.828
-53.782
-53.737
-53.691
-53.645
-53.599
-53.553
-53.507
-53.461
-53.415
-53.369
-53.323
-53.277
-53.231
-53.185
-53.138
-53.092
-53.046
-52.999
-52.953
-52.906
-52.86
-52.813
-52.767
-52.72
-52.673
-52.626
-52.58
-52.533
-52.486
-52.439
-52.392
-52.345
-52.298
-52.251
-52.204
-52.157
-52.109
-52.062
-52.015
-51.968
-51.92
-51.873
-51.825
-51.778
-51.73
-51.683
-51.635
-51.588
-51.54
-51.492
-51.445
-51.397
-51.349
-51.301
-51.253
-51.205
-51.157
-51.109
-51.061
-51.013
-50.965
-50.917
-50.869
-50.82
-50.772
-50.724
-50.676
-50.627
-50.579
-50.53
-50.482
-50.433
-50.385
-50.336
-50.288
-50.239
-50.19
-50.142
-50.093
-50.044
-49.995
-49.946
-49.897
-49.849
-49.8
-49.751
-49.702
-49.652
-49.603
-49.554
-49.505
-49.456
-49.407
-49.357
-49.308
-49.259
-49.21
-49.16
-49.111
-49.061
-49.012
-48.962
-48.913
-48.863
-48.814
-48.764
-48.714
-48.665
-48.615
-48.565
-48.515
-48.466
-48.416
-48.366
-48.316
-48.266
-48.216
-48.166
-48.116
-48.066
-48.016
-47.966
-47.916
-47.865
-47.815
-47.765
-47.715
-47.665
-47.614
-47.564
-47.514
-47.463
-47.413
-47.362
-47.312
-47.261
-47.211
-47.16
-47.11
-47.059
-47.008
-46.958
-46.907
-46.856
-46.806
-46.755
-46.704
-46.653
-46.602
-46.551
-46.5
-46.45
-46.399
-46.348
-46.297
-46.246
-46.194
-46.143
-46.092
-46.041
-45.99
-45.939
-45.888
-45.836
-45.785
-45.734
-45.682
-45.631
-45.58
-45.528
-45.477
-45.426
-45.374
-45.323
-45.271
-45.22
-45.168
-45.116
-45.065
-45.013
-44.962
-44.91
-44.858
-44.806
-44.755
-44.703
-44.651
-44.599
-44.547
-44.496
-44.444
-44.392
-44.34
-44.288
-44.236
-44.184
-44.132
-44.08
-44.028
-43.976
-43.924
-43.872
-43.819
-43.767
-43.715
-43.663
-43.611
-43.558
-43.506
-43.454
-43.402
-43.349
-43.297
-43.244
-43.192
-43.14
-43.087
-43.035
-42.982
-42.93
-42.877
-42.825
-42.772
-42.72
-42.667
-42.614
-42.562
-42.509
-42.456
-42.404
-42.351
-42.298
-42.245
-42.193
-42.14
-42.087
-42.034
-41.981
-41.928
-41.876
-41.823
-41.77
-41.717
-41.664
-41.611
-41.558
-41.505
-41.452
-41.399
-41.346
-41.292
-41.239
-41.186
-41.133
-41.08
-41.027
-40.973
-40.92
-40.867
-40.814
-40.76
-40.707
-40.654
-40.601
-40.547
-40.494
-40.44
-40.387
-40.334
-40.28
-40.227
-40.173
-40.12
-40.066
-40.013
-39.959
-39.906
-39.852
-39.799
-39.745
-39.691
-39.638
-39.584
-39.53
-39.477
-39.423
-39.369
-39.315
-39.262
-39.208
-39.154
-39.1
-39.047
-38.993
-38.939
-38.885
-38.831
-38.777
-38.723
-38.669
-38.616
-38.562
-38.508
-38.454
-38.4
-38.346
-38.292
-38.238
-38.183
-38.129
-38.075
-38.021
-37.967
-37.913
-37.859
-37.805
-37.75
-37.696
-37.642
-37.588
-37.534
-37.479
-37.425
-37.371
-37.317
-37.262
-37.208
-37.154
-37.099
-37.045
-36.99
-36.936
-36.882
-36.827
-36.773
-36.718
-36.664
-36.609
-36.555
-36.5
-36.446
-36.391
-36.337
-36.282
-36.228
-36.173
-36.119
-36.064
-36.009
-35.955
-35.9
-35.845
-35.791
-35.736
-35.681
-35.627
-35.572
-35.517
-35.463
-35.408
-35.353
-35.298
-35.243
-35.189
-35.134
-35.079
-35.024
-34.969
-34.914
-34.859
-34.805
-34.75
-34.695
-34.64
-34.585
-34.53
-34.475
-34.42
-34.365
-34.31
-34.255
-34.2
-34.145
-34.09
-34.035
-33.98
-33.925
-33.87
-33.814
-33.759
-33.704
-33.649
-33.594
-33.539
-33.484
-33.428
-33.373
-33.318
-33.263
-33.208
-33.152
-33.097
-33.042
-32.987
-32.931
-32.876
-32.821
-32.765
-32.71
-32.655
-32.599
-32.544
-32.489
-32.433
-32.378
-32.322
-32.267
-32.212
-32.156
-32.101
-32.045
-31.99
-31.934
-31.879
-31.823
-31.768
-31.712
-31.657
-31.601
-31.546
-31.49
-31.435
-31.379
-31.323
-31.268
-31.212
-31.157
-31.101
-31.045
-30.99
-30.934
-30.878
-30.823
-30.767
-30.711
-30.656
-30.6
-30.544
-30.489
-30.433
-30.377
-30.321
-30.266
-30.21
-30.154
-30.098
-30.042
-29.987
-29.931
-29.875
-29.819
-29.763
-29.708
-29.652
-29.596
-29.54
-29.484
-29.428
-29.372
-29.316
-29.26
-29.204
-29.149
-29.093
-29.037
-28.981
-28.925
-28.869
-28.813
-28.757
-28.701
-28.645
-28.589
-28.533
-28.477
-28.421
-28.364
-28.308
-28.252
-28.196
-28.14
-28.084
-28.028
-27.972
-27.916
-27.86
-27.803
-27.747
-27.691
-27.635
-27.579
-27.523
-27.466
-27.41
-27.354
-27.298
-27.242
-27.185
-27.129
-27.073
-27.017
-26.96
-26.904
-26.848
-26.792
-26.735
-26.679
-26.623
-26.567
-26.51
-26.454
-26.398
-26.341
-26.285
-26.229
-26.172
-26.116
-26.059
-26.003
-25.947
-25.89
-25.834
-25.778
-25.721
-25.665
-25.608
-25.552
-25.495
-25.439
-25.382
-25.326
-25.27
-25.213
-25.157
-25.1
-25.044
-24.987
-24.931
-24.874
-24.818
-24.761
-24.705
-24.648
-24.591
-24.535
-24.478
-24.422
-24.365
-24.309
-24.252
-24.195
-24.139
-24.082
-24.026
-23.969
-23.912
-23.856
-23.799
-23.742
-23.686
-23.629
-23.573
-23.516
-23.459
-23.402
-23.346
-23.289
-23.232
-23.176
-23.119
-23.062
-23.006
-22.949
-22.892
-22.835
-22.779
-22.722
-22.665
-22.608
-22.552
-22.495
-22.438
-22.381
-22.324
-22.268
-22.211
-22.154
-22.097
-22.04
-21.984
-21.927
-21.87
-21.813
-21.756
-21.699
-21.643
-21.586
-21.529
-21.472
-21.415
-21.358
-21.301
-21.244
-21.188
-21.131
-21.074
-21.017
-20.96
-20.903
-20.846
-20.789
-20.732
-20.675
-20.618
-20.561
-20.504
-20.447
-20.39
-20.333
-20.276
-20.22
-20.163
-20.106
-20.049
-19.992
-19.935
-19.878
-19.82
-19.763
-19.706
-19.649
-19.592
-19.535
-19.478
-19.421
-19.364
-19.307
-19.25
-19.193
-19.136
-19.079
-19.022
-18.965
-18.908
-18.85
-18.793
-18.736
-18.679
-18.622
-18.565
-18.508
-18.451
-18.394
-18.336
-18.279
-18.222
-18.165
-18.108
-18.051
-17.994
-17.936
-17.879
-17.822
-17.765
-17.708
-17.65
-17.593
-17.536
-17.479
-17.422
-17.364
-17.307
-17.25
-17.193
-17.136
-17.078
-17.021
-16.964
-16.907
-16.849
-16.792
-16.735
-16.678
-16.62
-16.563
-16.506
-16.449
-16.391
-16.334
-16.277
-16.219
-16.162
-16.105
-16.048
-15.99
-15.933
-15.876
-15.818
-15.761
-15.704
-15.646
-15.589
-15.532
-15.474
-15.417
-15.36
-15.302
-15.245
-15.188
-15.13
-15.073
-15.016
-14.958
-14.901
-14.844
-14.786
-14.729
-14.671
-14.614
-14.557
-14.499
-14.442
-14.385
-14.327
-14.27
-14.212
-14.155
-14.098
-14.04
-13.983
-13.925
-13.868
-13.81
-13.753
-13.696
-13.638
-13.581
-13.523
-13.466
-13.408
-13.351
-13.293
-13.236
-13.179
-13.121
-13.064
-13.006
-12.949
-12.891
-12.834
-12.776
-12.719
-12.661
-12.604
-12.546
-12.489
-12.431
-12.374
-12.316
-12.259
-12.201
-12.144
-12.086
-12.029
-11.971
-11.914
-11.856
-11.799
-11.741
-11.684
-11.626
-11.569
-11.511
-11.453
-11.396
-11.338
-11.281
-11.223
-11.166
-11.108
-11.051
-10.993
-10.936
-10.878
-10.82
-10.763
-10.705
-10.648
-10.59
-10.533
-10.475
-10.417
-10.36
-10.302
-10.245
-10.187
-10.129
-10.072
-10.014
-9.957
-9.899
-9.841
-9.784
-9.726
-9.669
-9.611
-9.553
-9.496
-9.438
-9.381
-9.323
-9.265
-9.208
-9.15
-9.092
-9.035
-8.977
-8.919
-8.862
-8.804
-8.747
-8.689
-8.631
-8.574
-8.516
-8.458
-8.401
-8.343
-8.285
-8.228
-8.17
-8.112
-8.055
-7.997
-7.939
-7.882
-7.824
-7.766
-7.709
-7.651
-7.593
-7.536
-7.478
-7.42
-7.363
-7.305
-7.247
-7.19
-7.132
-7.074
-7.017
-6.959
-6.901
-6.843
-6.786
-6.728
-6.67
-6.613
-6.555
-6.497
-6.44
-6.382
-6.324
-6.266
-6.209
-6.151
-6.093
-6.036
-5.978
-5.92
-5.862
-5.805
-5.747
-5.689
-5.632
-5.574
-5.516
-5.458
-5.401
-5.343
-5.285
-5.227
-5.17
-5.112
-5.054
-4.996
-4.939
-4.881
-4.823
-4.766
-4.708
-4.65
-4.592
-4.535
-4.477
-4.419
-4.361
-4.304
-4.246
-4.188
-4.13
-4.073
-4.015
-3.957
-3.899
-3.842
-3.784
-3.726
-3.668
-3.611
-3.553
-3.495
-3.437
-3.38
-3.322
-3.264
-3.206
-3.148
-3.091
-3.033
-2.975
-2.917
-2.86
-2.802
-2.744
-2.686
-2.629
-2.571
-2.513
-2.455
-2.398
-2.34
-2.282
-2.224
-2.166
-2.109
-2.051
-1.993
-1.935
-1.878
-1.82
-1.762
-1.704
-1.646
-1.589
-1.531
-1.473
-1.415
-1.358
-1.3
-1.242
-1.184
-1.126
-1.069
-1.011
-0.953
-0.895
-0.838
-0.78
-0.722
-0.664
-0.606
-0.549
-0.491
-0.433
-0.375
-0.318
-0.26
-0.202
-0.144
-0.086
-0.029
0.029
0.087
0.145
0.202
0.26
0.318
0.376
0.434
0.491
0.549
0.607
0.665
0.722
0.78
0.838
0.896
0.954
1.011
1.069
1.127
1.185
1.242
1.3
1.358
1.416
1.474
1.531
1.589
1.647
1.705
1.762
1.82
1.878
1.936
1.994
2.051
2.109
2.167
2.225
2.282
2.34
2.398
2.456
2.514
2.571
2.629
2.687
2.745
2.802
2.86
2.918
2.976
3.033
3.091
3.149
3.207
3.264
3.322
3.38
3.438
3.496
3.553
3.611
3.669
3.727
3.784
3.842
3.9
3.958
4.015
4.073
4.131
4.189
4.246
4.304
4.362
4.42
4.477
4.535
4.593
4.651
4.708
4.766
4.824
4.881
4.939
4.997
5.055
5.112
5.17
5.228
5.286
5.343
5.401
5.459
5.517
5.574
5.632
5.69
5.747
5.805
5.863
5.921
5.978
6.036
6.094
6.151
6.209
6.267
6.325
6.382
6.44
6.498
6.555
6.613
6.671
6.729
6.786
6.844
6.902
6.959
7.017
7.075
7.132
7.19
7.248
7.305
7.363
7.421
7.479
7.536
7.594
7.652
7.709
7.767
7.825
7.882
7.94
7.998
8.055
8.113
8.171
8.228
8.286
8.344
8.401
8.459
8.516
8.574
8.632
8.689
8.747
8.805
8.862
8.92
8.978
9.035
9.093
9.151
9.208
9.266
9.323
9.381
9.439
9.496
9.554
9.612
9.669
9.727
9.784
9.842
9.9
9.957
10.015
10.072
10.13
10.188
10.245
10.303
10.36
10.418
10.475
10.533
10.591
10.648
10.706
10.763
10.821
10.878
10.936
10.994
11.051
11.109
11.166
11.224
11.281
11.339
11.396
11.454
11.512
11.569
11.627
11.684
11.742
11.799
11.857
11.914
11.972
12.029
12.087
12.144
12.202
12.259
12.317
12.374
12.432
12.489
12.547
12.604
12.662
12.719
12.777
12.834
12.892
12.949
13.007
13.064
13.122
13.179
13.237
13.294
13.351
13.409
13.466
13.524
13.581
13.639
13.696
13.754
13.811
13.868
13.926
13.983
14.041
14.098
14.156
14.213
14.27
14.328
14.385
14.443
14.5
14.557
14.615
14.672
14.729
14.787
14.844
14.902
14.959
15.016
15.074
15.131
15.188
15.246
15.303
15.36
15.418
15.475
15.532
15.59
15.647
15.704
15.762
15.819
15.876
15.934
15.991
16.048
16.106
16.163
16.22
16.277
16.335
16.392
16.449
16.507
16.564
16.621
16.678
16.736
16.793
16.85
16.907
16.965
17.022
17.079
17.136
17.193
17.251
17.308
17.365
17.422
17.48
17.537
17.594
17.651
17.708
17.765
17.823
17.88
17.937
17.994
18.051
18.108
18.166
18.223
18.28
18.337
18.394
18.451
18.508
18.566
18.623
18.68
18.737
18.794
18.851
18.908
18.965
19.022
19.08
19.137
19.194
19.251
19.308
19.365
19.422
19.479
19.536
19.593
19.65
19.707
19.764
19.821
19.878
19.935
19.992
20.049
20.106
20.163
20.22
20.277
20.334
20.391
20.448
20.505
20.562
20.619
20.676
20.733
20.79
20.847
20.904
20.961
21.018
21.074
21.131
21.188
21.245
21.302
21.359
21.416
21.473
21.53
21.586
21.643
21.7
21.757
21.814
21.871
21.928
21.984
22.041
22.098
22.155
22.212
22.268
22.325
22.382
22.439
22.496
22.552
22.609
22.666
22.723
22.779
22.836
22.893
22.95
23.006
23.063
23.12
23.176
23.233
23.29
23.347
23.403
23.46
23.517
23.573
23.63
23.687
23.743
23.8
23.857
23.913
23.97
24.026
24.083
24.14
24.196
24.253
24.309
24.366
24.423
24.479
24.536
24.592
24.649
24.705
24.762
24.818
24.875
24.931
24.988
25.044
25.101
25.157
25.214
25.27
25.327
25.383
25.44
25.496
25.553
25.609
25.665
25.722
25.778
25.835
25.891
25.948
26.004
26.06
26.117
26.173
26.229
26.286
26.342
26.398
26.455
26.511
26.567
26.624
26.68
26.736
26.793
26.849
26.905
26.961
27.018
27.074
27.13
27.186
27.243
27.299
27.355
27.411
27.467
27.524
27.58
27.636
27.692
27.748
27.804
27.86
27.917
27.973
28.029
28.085
28.141
28.197
28.253
28.309
28.365
28.421
28.477
28.534
28.59
28.646
28.702
28.758
28.814
28.87
28.926
28.982
29.038
29.093
29.149
29.205
29.261
29.317
29.373
29.429
29.485
29.541
29.597
29.653
29.708
29.764
29.82
29.876
29.932
29.988
30.043
30.099
30.155
30.211
30.267
30.322
30.378
30.434
30.49
30.545
30.601
30.657
30.712
30.768
30.824
30.879
30.935
30.991
31.046
31.102
31.158
31.213
31.269
31.324
31.38
31.436
31.491
31.547
31.602
31.658
31.713
31.769
31.824
31.88
31.935
31.991
32.046
32.102
32.157
32.213
32.268
32.323
32.379
32.434
32.49
32.545
32.6
32.656
32.711
32.766
32.822
32.877
32.932
32.988
33.043
33.098
33.153
33.209
33.264
33.319
33.374
33.429
33.485
33.54
33.595
33.65
33.705
33.76
33.815
33.871
33.926
33.981
34.036
34.091
34.146
34.201
34.256
34.311
34.366
34.421
34.476
34.531
34.586
34.641
34.696
34.751
34.806
34.861
34.915
34.97
35.025
35.08
35.135
35.19
35.244
35.299
35.354
35.409
35.464
35.518
35.573
35.628
35.682
35.737
35.792
35.847
35.901
35.956
36.01
36.065
36.12
36.174
36.229
36.283
36.338
36.393
36.447
36.502
36.556
36.611
36.665
36.719
36.774
36.828
36.883
36.937
36.992
37.046
37.1
37.155
37.209
37.263
37.318
37.372
37.426
37.48
37.535
37.589
37.643
37.697
37.752
37.806
37.86
37.914
37.968
38.022
38.076
38.131
38.185
38.239
38.293
38.347
38.401
38.455
38.509
38.563
38.617
38.671
38.725
38.778
38.832
38.886
38.94
38.994
39.048
39.102
39.155
39.209
39.263
39.317
39.37
39.424
39.478
39.532
39.585
39.639
39.692
39.746
39.8
39.853
39.907
39.96
40.014
40.067
40.121
40.174
40.228
40.281
40.335
40.388
40.442
40.495
40.548
40.602
40.655
40.708
40.762
40.815
40.868
40.921
40.975
41.028
41.081
41.134
41.187
41.241
41.294
41.347
41.4
41.453
41.506
41.559
41.612
41.665
41.718
41.771
41.824
41.877
41.93
41.983
42.035
42.088
42.141
42.194
42.247
42.299
42.352
42.405
42.458
42.51
42.563
42.616
42.668
42.721
42.773
42.826
42.878
42.931
42.984
43.036
43.088
43.141
43.193
43.246
43.298
43.35
43.403
43.455
43.507
43.56
43.612
43.664
43.716
43.769
43.821
43.873
43.925
43.977
44.029
44.081
44.133
44.185
44.237
44.289
44.341
44.393
44.445
44.497
44.549
44.601
44.652
44.704
44.756
44.808
44.859
44.911
44.963
45.014
45.066
45.118
45.169
45.221
45.272
45.324
45.375
45.427
45.478
45.53
45.581
45.632
45.684
45.735
45.786
45.838
45.889
45.94
45.991
46.042
46.094
46.145
46.196
46.247
46.298
46.349
46.4
46.451
46.502
46.553
46.604
46.654
46.705
46.756
46.807
46.858
46.908
46.959
47.01
47.06
47.111
47.161
47.212
47.263
47.313
47.364
47.414
47.464
47.515
47.565
47.616
47.666
47.716
47.766
47.817
47.867
47.917
47.967
48.017
48.067
48.117
48.167
48.217
48.267
48.317
48.367
48.417
48.467
48.517
48.566
48.616
48.666
48.716
48.765
48.815
48.864
48.914
48.964
49.013
49.063
49.112
49.161
49.211
49.26
49.309
49.359
49.408
49.457
49.506
49.556
49.605
49.654
49.703
49.752
49.801
49.85
49.899
49.948
49.996
50.045
50.094
50.143
50.192
50.24
50.289
50.337
50.386
50.435
50.483
50.532
50.58
50.628
50.677
50.725
50.773
50.822
50.87
50.918
50.966
51.014
51.062
51.111
51.159
51.207
51.254
51.302
51.35
51.398
51.446
51.494
51.541
51.589
51.637
51.684
51.732
51.779
51.827
51.874
51.922
51.969
52.016
52.063
52.111
52.158
52.205
52.252
52.299
52.346
52.393
52.44
52.487
52.534
52.581
52.628
52.674
52.721
52.768
52.814
52.861
52.908
52.954
53.001
53.047
53.093
53.14
53.186
53.232
53.278
53.325
53.371
53.417
53.463
53.509
53.555
53.6
53.646
53.692
53.738
53.784
53.829
53.875
53.92
53.966
54.011
54.057
54.102
54.148
54.193
54.238
54.283
54.328
54.373
54.418
54.463
54.508
54.553
54.598
54.643
54.688
54.732
54.777
54.822
54.866
54.911
54.955
55
55.044
55.088
55.132
55.177
55.221
55.265
55.309
55.353
55.397
55.441